STUDYID,DOMAIN,USUBJID,VSSEQ,VSTESTCD,VSTEST,VSPOS,VSORRES,VSORRESU,VSSTAT,VSBLFL,VISITNUM,VISIT,VSDTC,VSTPTNUM
CDISCPILOT01,VS,01-701-1015,1,DIABP,Diastolic Blood Pressure,SUPINE,64,mmHg,NA,NA,1,SCREENING 1,2013-12-26,815
CDISCPILOT01,VS,01-701-1015,2,DIABP,Diastolic Blood Pressure,STANDING,83,mmHg,NA,NA,1,SCREENING 1,2013-12-26,816
CDISCPILOT01,VS,01-701-1015,3,DIABP,Diastolic Blood Pressure,STANDING,57,mmHg,NA,NA,1,SCREENING 1,2013-12-26,817
CDISCPILOT01,VS,01-701-1015,4,DIABP,Diastolic Blood Pressure,SUPINE,68,mmHg,NA,NA,2,SCREENING 2,2013-12-31,815
CDISCPILOT01,VS,01-701-1015,5,DIABP,Diastolic Blood Pressure,STANDING,59,mmHg,NA,NA,2,SCREENING 2,2013-12-31,816
CDISCPILOT01,VS,01-701-1015,6,DIABP,Diastolic Blood Pressure,STANDING,NA,mmHg,NA,NA,2,SCREENING 2,2013-12-31,817
CDISCPILOT01,VS,01-701-1015,7,DIABP,Diastolic Blood Pressure,SUPINE,56,mmHg,NA,Y,3,BASELINE,2014-01-02,815
CDISCPILOT01,VS,01-701-1015,8,DIABP,Diastolic Blood Pressure,STANDING,51,mmHg,NA,Y,3,BASELINE,2014-01-02,816
CDISCPILOT01,VS,01-701-1015,9,DIABP,Diastolic Blood Pressure,STANDING,61,mmHg,NA,Y,3,BASELINE,2014-01-02,817
CDISCPILOT01,VS,01-701-1015,10,DIABP,Diastolic Blood Pressure,SUPINE,67,mmHg,NA,NA,3.5,AMBUL ECG PLACEMENT,2014-01-14,815
CDISCPILOT01,VS,01-701-1015,11,DIABP,Diastolic Blood Pressure,STANDING,61,mmHg,NA,NA,3.5,AMBUL ECG PLACEMENT,2014-01-14,816
CDISCPILOT01,VS,01-701-1015,12,DIABP,Diastolic Blood Pressure,STANDING,65,mmHg,NA,NA,3.5,AMBUL ECG PLACEMENT,2014-01-14,817
CDISCPILOT01,VS,01-701-1015,13,DIABP,Diastolic Blood Pressure,SUPINE,56,mmHg,NA,NA,4,WEEK 2,2014-01-16,815
CDISCPILOT01,VS,01-701-1015,14,DIABP,Diastolic Blood Pressure,STANDING,50,mmHg,NA,NA,4,WEEK 2,2014-01-16,816
CDISCPILOT01,VS,01-701-1015,15,DIABP,Diastolic Blood Pressure,STANDING,54,mmHg,NA,NA,4,WEEK 2,2014-01-16,817
CDISCPILOT01,VS,01-701-1015,16,DIABP,Diastolic Blood Pressure,SUPINE,NA,mmHg,NA,NA,5,WEEK 4,2014-01-30,815
CDISCPILOT01,VS,01-701-1015,17,DIABP,Diastolic Blood Pressure,STANDING,55,mmHg,NA,NA,5,WEEK 4,2014-01-30,816
CDISCPILOT01,VS,01-701-1015,18,DIABP,Diastolic Blood Pressure,STANDING,53,mmHg,NA,NA,5,WEEK 4,2014-01-30,817
CDISCPILOT01,VS,01-701-1015,19,DIABP,Diastolic Blood Pressure,SUPINE,NA,mmHg,NA,NA,6,AMBUL ECG REMOVAL,2014-02-01,815
CDISCPILOT01,VS,01-701-1015,20,DIABP,Diastolic Blood Pressure,STANDING,61,mmHg,NA,NA,6,AMBUL ECG REMOVAL,2014-02-01,816
CDISCPILOT01,VS,01-701-1015,21,DIABP,Diastolic Blood Pressure,STANDING,53,mmHg,NA,NA,6,AMBUL ECG REMOVAL,2014-02-01,817
CDISCPILOT01,VS,01-701-1015,22,DIABP,Diastolic Blood Pressure,SUPINE,55,mmHg,NA,NA,7,WEEK 6,2014-02-12,815
CDISCPILOT01,VS,01-701-1015,23,DIABP,Diastolic Blood Pressure,STANDING,63,mmHg,NA,NA,7,WEEK 6,2014-02-12,816
CDISCPILOT01,VS,01-701-1015,24,DIABP,Diastolic Blood Pressure,STANDING,NA,mmHg,NA,NA,7,WEEK 6,2014-02-12,817
CDISCPILOT01,VS,01-701-1015,25,DIABP,Diastolic Blood Pressure,SUPINE,67,mmHg,NA,NA,8,WEEK 8,2014-03-05,815
CDISCPILOT01,VS,01-701-1015,26,DIABP,Diastolic Blood Pressure,STANDING,62,mmHg,NA,NA,8,WEEK 8,2014-03-05,816
CDISCPILOT01,VS,01-701-1015,27,DIABP,Diastolic Blood Pressure,STANDING,71,mmHg,NA,NA,8,WEEK 8,2014-03-05,817
CDISCPILOT01,VS,01-701-1015,28,DIABP,Diastolic Blood Pressure,SUPINE,68,mmHg,NA,NA,9,WEEK 12,2014-03-26,815
CDISCPILOT01,VS,01-701-1015,29,DIABP,Diastolic Blood Pressure,STANDING,NA,mmHg,NA,NA,9,WEEK 12,2014-03-26,816
CDISCPILOT01,VS,01-701-1015,30,DIABP,Diastolic Blood Pressure,STANDING,64,mmHg,NA,NA,9,WEEK 12,2014-03-26,817
CDISCPILOT01,VS,01-701-1015,31,DIABP,Diastolic Blood Pressure,SUPINE,66,mmHg,NA,NA,10,WEEK 16,2014-05-07,815
CDISCPILOT01,VS,01-701-1015,32,DIABP,Diastolic Blood Pressure,STANDING,NA,mmHg,NA,NA,10,WEEK 16,2014-05-07,816
CDISCPILOT01,VS,01-701-1015,33,DIABP,Diastolic Blood Pressure,STANDING,66,mmHg,NA,NA,10,WEEK 16,2014-05-07,817
CDISCPILOT01,VS,01-701-1015,34,DIABP,Diastolic Blood Pressure,SUPINE,67,mmHg,NA,NA,11,WEEK 20,2014-05-21,815
CDISCPILOT01,VS,01-701-1015,35,DIABP,Diastolic Blood Pressure,STANDING,65,mmHg,NA,NA,11,WEEK 20,2014-05-21,816
CDISCPILOT01,VS,01-701-1015,36,DIABP,Diastolic Blood Pressure,STANDING,63,mmHg,NA,NA,11,WEEK 20,2014-05-21,817
CDISCPILOT01,VS,01-701-1015,37,DIABP,Diastolic Blood Pressure,SUPINE,NA,mmHg,NA,NA,12,WEEK 24,2014-06-18,815
CDISCPILOT01,VS,01-701-1015,38,DIABP,Diastolic Blood Pressure,STANDING,57,mmHg,NA,NA,12,WEEK 24,2014-06-18,816
CDISCPILOT01,VS,01-701-1015,39,DIABP,Diastolic Blood Pressure,STANDING,71,mmHg,NA,NA,12,WEEK 24,2014-06-18,817
CDISCPILOT01,VS,01-701-1015,40,DIABP,Diastolic Blood Pressure,SUPINE,61,mmHg,NA,NA,13,WEEK 26,2014-07-02,815
CDISCPILOT01,VS,01-701-1015,41,DIABP,Diastolic Blood Pressure,STANDING,59,mmHg,NA,NA,13,WEEK 26,2014-07-02,816
CDISCPILOT01,VS,01-701-1015,42,DIABP,Diastolic Blood Pressure,STANDING,55,mmHg,NA,NA,13,WEEK 26,2014-07-02,817
CDISCPILOT01,VS,01-701-1015,43,HEIGHT,Height,NA,58.0,IN,NA,NA,1,SCREENING 1,2013-12-26,NA
CDISCPILOT01,VS,01-701-1015,44,PULSE,Pulse Rate,SUPINE,57,BEATS/MIN,NA,NA,1,SCREENING 1,2013-12-26,815
CDISCPILOT01,VS,01-701-1015,45,PULSE,Pulse Rate,STANDING,62,BEATS/MIN,NA,NA,1,SCREENING 1,2013-12-26,816
CDISCPILOT01,VS,01-701-1015,46,PULSE,Pulse Rate,STANDING,65,BEATS/MIN,NA,NA,1,SCREENING 1,2013-12-26,817
CDISCPILOT01,VS,01-701-1015,47,PULSE,Pulse Rate,SUPINE,56,BEATS/MIN,NA,NA,2,SCREENING 2,2013-12-31,815
CDISCPILOT01,VS,01-701-1015,48,PULSE,Pulse Rate,STANDING,60,BEATS/MIN,NA,NA,2,SCREENING 2,2013-12-31,816
CDISCPILOT01,VS,01-701-1015,49,PULSE,Pulse Rate,STANDING,57,BEATS/MIN,NA,NA,2,SCREENING 2,2013-12-31,817
CDISCPILOT01,VS,01-701-1015,50,PULSE,Pulse Rate,SUPINE,56,BEATS/MIN,NA,Y,3,BASELINE,2014-01-02,815
CDISCPILOT01,VS,01-701-1015,51,PULSE,Pulse Rate,STANDING,59,BEATS/MIN,NA,Y,3,BASELINE,2014-01-02,816
CDISCPILOT01,VS,01-701-1015,52,PULSE,Pulse Rate,STANDING,59,BEATS/MIN,NA,Y,3,BASELINE,2014-01-02,817
CDISCPILOT01,VS,01-701-1015,53,PULSE,Pulse Rate,SUPINE,NA,BEATS/MIN,NA,NA,3.5,AMBUL ECG PLACEMENT,2014-01-14,815
CDISCPILOT01,VS,01-701-1015,54,PULSE,Pulse Rate,STANDING,65,BEATS/MIN,NA,NA,3.5,AMBUL ECG PLACEMENT,2014-01-14,816
CDISCPILOT01,VS,01-701-1015,55,PULSE,Pulse Rate,STANDING,61,BEATS/MIN,NA,NA,3.5,AMBUL ECG PLACEMENT,2014-01-14,817
CDISCPILOT01,VS,01-701-1015,56,PULSE,Pulse Rate,SUPINE,58,BEATS/MIN,NA,NA,4,WEEK 2,2014-01-16,815
CDISCPILOT01,VS,01-701-1015,57,PULSE,Pulse Rate,STANDING,61,BEATS/MIN,NA,NA,4,WEEK 2,2014-01-16,816
CDISCPILOT01,VS,01-701-1015,58,PULSE,Pulse Rate,STANDING,62,BEATS/MIN,NA,NA,4,WEEK 2,2014-01-16,817
CDISCPILOT01,VS,01-701-1015,59,PULSE,Pulse Rate,SUPINE,59,BEATS/MIN,NA,NA,5,WEEK 4,2014-01-30,815
CDISCPILOT01,VS,01-701-1015,60,PULSE,Pulse Rate,STANDING,62,BEATS/MIN,NA,NA,5,WEEK 4,2014-01-30,816
CDISCPILOT01,VS,01-701-1015,61,PULSE,Pulse Rate,STANDING,59,BEATS/MIN,NA,NA,5,WEEK 4,2014-01-30,817
CDISCPILOT01,VS,01-701-1015,62,PULSE,Pulse Rate,SUPINE,NA,BEATS/MIN,NA,NA,6,AMBUL ECG REMOVAL,2014-02-01,815
CDISCPILOT01,VS,01-701-1015,63,PULSE,Pulse Rate,STANDING,69,BEATS/MIN,NA,NA,6,AMBUL ECG REMOVAL,2014-02-01,816
CDISCPILOT01,VS,01-701-1015,64,PULSE,Pulse Rate,STANDING,65,BEATS/MIN,NA,NA,6,AMBUL ECG REMOVAL,2014-02-01,817
CDISCPILOT01,VS,01-701-1015,65,PULSE,Pulse Rate,SUPINE,55,BEATS/MIN,NA,NA,7,WEEK 6,2014-02-12,815
CDISCPILOT01,VS,01-701-1015,66,PULSE,Pulse Rate,STANDING,56,BEATS/MIN,NA,NA,7,WEEK 6,2014-02-12,816
CDISCPILOT01,VS,01-701-1015,67,PULSE,Pulse Rate,STANDING,57,BEATS/MIN,NA,NA,7,WEEK 6,2014-02-12,817
CDISCPILOT01,VS,01-701-1015,68,PULSE,Pulse Rate,SUPINE,57,BEATS/MIN,NA,NA,8,WEEK 8,2014-03-05,815
CDISCPILOT01,VS,01-701-1015,69,PULSE,Pulse Rate,STANDING,NA,BEATS/MIN,NA,NA,8,WEEK 8,2014-03-05,816
CDISCPILOT01,VS,01-701-1015,70,PULSE,Pulse Rate,STANDING,57,BEATS/MIN,NA,NA,8,WEEK 8,2014-03-05,817
CDISCPILOT01,VS,01-701-1015,71,PULSE,Pulse Rate,SUPINE,54,BEATS/MIN,NA,NA,9,WEEK 12,2014-03-26,815
CDISCPILOT01,VS,01-701-1015,72,PULSE,Pulse Rate,STANDING,53,BEATS/MIN,NA,NA,9,WEEK 12,2014-03-26,816
CDISCPILOT01,VS,01-701-1015,73,PULSE,Pulse Rate,STANDING,52,BEATS/MIN,NA,NA,9,WEEK 12,2014-03-26,817
CDISCPILOT01,VS,01-701-1015,74,PULSE,Pulse Rate,SUPINE,60,BEATS/MIN,NA,NA,10,WEEK 16,2014-05-07,815
CDISCPILOT01,VS,01-701-1015,75,PULSE,Pulse Rate,STANDING,55,BEATS/MIN,NA,NA,10,WEEK 16,2014-05-07,816
CDISCPILOT01,VS,01-701-1015,76,PULSE,Pulse Rate,STANDING,61,BEATS/MIN,NA,NA,10,WEEK 16,2014-05-07,817
CDISCPILOT01,VS,01-701-1015,77,PULSE,Pulse Rate,SUPINE,54,BEATS/MIN,NA,NA,11,WEEK 20,2014-05-21,815
CDISCPILOT01,VS,01-701-1015,78,PULSE,Pulse Rate,STANDING,59,BEATS/MIN,NA,NA,11,WEEK 20,2014-05-21,816
CDISCPILOT01,VS,01-701-1015,79,PULSE,Pulse Rate,STANDING,NA,BEATS/MIN,NA,NA,11,WEEK 20,2014-05-21,817
CDISCPILOT01,VS,01-701-1015,80,PULSE,Pulse Rate,SUPINE,55,BEATS/MIN,NA,NA,12,WEEK 24,2014-06-18,815
CDISCPILOT01,VS,01-701-1015,81,PULSE,Pulse Rate,STANDING,57,BEATS/MIN,NA,NA,12,WEEK 24,2014-06-18,816
CDISCPILOT01,VS,01-701-1015,82,PULSE,Pulse Rate,STANDING,56,BEATS/MIN,NA,NA,12,WEEK 24,2014-06-18,817
CDISCPILOT01,VS,01-701-1015,83,PULSE,Pulse Rate,SUPINE,60,BEATS/MIN,NA,NA,13,WEEK 26,2014-07-02,815
CDISCPILOT01,VS,01-701-1015,84,PULSE,Pulse Rate,STANDING,NA,BEATS/MIN,NA,NA,13,WEEK 26,2014-07-02,816
CDISCPILOT01,VS,01-701-1015,85,PULSE,Pulse Rate,STANDING,59,BEATS/MIN,NA,NA,13,WEEK 26,2014-07-02,817
CDISCPILOT01,VS,01-701-1015,86,SYSBP,Systolic Blood Pressure,SUPINE,131,mmHg,NA,NA,1,SCREENING 1,2013-12-26,815
CDISCPILOT01,VS,01-701-1015,87,SYSBP,Systolic Blood Pressure,STANDING,129,mmHg,NA,NA,1,SCREENING 1,2013-12-26,816
CDISCPILOT01,VS,01-701-1015,88,SYSBP,Systolic Blood Pressure,STANDING,147,mmHg,NA,NA,1,SCREENING 1,2013-12-26,817
CDISCPILOT01,VS,01-701-1015,89,SYSBP,Systolic Blood Pressure,SUPINE,138,mmHg,NA,NA,2,SCREENING 2,2013-12-31,815
CDISCPILOT01,VS,01-701-1015,90,SYSBP,Systolic Blood Pressure,STANDING,137,mmHg,NA,NA,2,SCREENING 2,2013-12-31,816
CDISCPILOT01,VS,01-701-1015,91,SYSBP,Systolic Blood Pressure,STANDING,145,mmHg,NA,NA,2,SCREENING 2,2013-12-31,817
CDISCPILOT01,VS,01-701-1015,92,SYSBP,Systolic Blood Pressure,SUPINE,130,mmHg,NA,Y,3,BASELINE,2014-01-02,815
CDISCPILOT01,VS,01-701-1015,93,SYSBP,Systolic Blood Pressure,STANDING,121,mmHg,NA,Y,3,BASELINE,2014-01-02,816
CDISCPILOT01,VS,01-701-1015,94,SYSBP,Systolic Blood Pressure,STANDING,NA,mmHg,NA,Y,3,BASELINE,2014-01-02,817
CDISCPILOT01,VS,01-701-1015,95,SYSBP,Systolic Blood Pressure,SUPINE,137,mmHg,NA,NA,3.5,AMBUL ECG PLACEMENT,2014-01-14,815
CDISCPILOT01,VS,01-701-1015,96,SYSBP,Systolic Blood Pressure,STANDING,127,mmHg,NA,NA,3.5,AMBUL ECG PLACEMENT,2014-01-14,816
CDISCPILOT01,VS,01-701-1015,97,SYSBP,Systolic Blood Pressure,STANDING,NA,mmHg,NA,NA,3.5,AMBUL ECG PLACEMENT,2014-01-14,817
CDISCPILOT01,VS,01-701-1015,98,SYSBP,Systolic Blood Pressure,SUPINE,114,mmHg,NA,NA,4,WEEK 2,2014-01-16,815
CDISCPILOT01,VS,01-701-1015,99,SYSBP,Systolic Blood Pressure,STANDING,121,mmHg,NA,NA,4,WEEK 2,2014-01-16,816
CDISCPILOT01,VS,01-701-1015,100,SYSBP,Systolic Blood Pressure,STANDING,132,mmHg,NA,NA,4,WEEK 2,2014-01-16,817
CDISCPILOT01,VS,01-701-1015,101,SYSBP,Systolic Blood Pressure,SUPINE,138,mmHg,NA,NA,5,WEEK 4,2014-01-30,815
CDISCPILOT01,VS,01-701-1015,102,SYSBP,Systolic Blood Pressure,STANDING,137,mmHg,NA,NA,5,WEEK 4,2014-01-30,816
CDISCPILOT01,VS,01-701-1015,103,SYSBP,Systolic Blood Pressure,STANDING,132,mmHg,NA,NA,5,WEEK 4,2014-01-30,817
CDISCPILOT01,VS,01-701-1015,104,SYSBP,Systolic Blood Pressure,SUPINE,138,mmHg,NA,NA,6,AMBUL ECG REMOVAL,2014-02-01,815
CDISCPILOT01,VS,01-701-1015,105,SYSBP,Systolic Blood Pressure,STANDING,131,mmHg,NA,NA,6,AMBUL ECG REMOVAL,2014-02-01,816
CDISCPILOT01,VS,01-701-1015,106,SYSBP,Systolic Blood Pressure,STANDING,123,mmHg,NA,NA,6,AMBUL ECG REMOVAL,2014-02-01,817
CDISCPILOT01,VS,01-701-1015,107,SYSBP,Systolic Blood Pressure,SUPINE,148,mmHg,NA,NA,7,WEEK 6,2014-02-12,815
CDISCPILOT01,VS,01-701-1015,108,SYSBP,Systolic Blood Pressure,STANDING,137,mmHg,NA,NA,7,WEEK 6,2014-02-12,816
CDISCPILOT01,VS,01-701-1015,109,SYSBP,Systolic Blood Pressure,STANDING,138,mmHg,NA,NA,7,WEEK 6,2014-02-12,817
CDISCPILOT01,VS,01-701-1015,110,SYSBP,Systolic Blood Pressure,SUPINE,138,mmHg,NA,NA,8,WEEK 8,2014-03-05,815
CDISCPILOT01,VS,01-701-1015,111,SYSBP,Systolic Blood Pressure,STANDING,146,mmHg,NA,NA,8,WEEK 8,2014-03-05,816
CDISCPILOT01,VS,01-701-1015,112,SYSBP,Systolic Blood Pressure,STANDING,140,mmHg,NA,NA,8,WEEK 8,2014-03-05,817
CDISCPILOT01,VS,01-701-1015,113,SYSBP,Systolic Blood Pressure,SUPINE,NA,mmHg,NA,NA,9,WEEK 12,2014-03-26,815
CDISCPILOT01,VS,01-701-1015,114,SYSBP,Systolic Blood Pressure,STANDING,146,mmHg,NA,NA,9,WEEK 12,2014-03-26,816
CDISCPILOT01,VS,01-701-1015,115,SYSBP,Systolic Blood Pressure,STANDING,138,mmHg,NA,NA,9,WEEK 12,2014-03-26,817
CDISCPILOT01,VS,01-701-1015,116,SYSBP,Systolic Blood Pressure,SUPINE,NA,mmHg,NA,NA,10,WEEK 16,2014-05-07,815
CDISCPILOT01,VS,01-701-1015,117,SYSBP,Systolic Blood Pressure,STANDING,145,mmHg,NA,NA,10,WEEK 16,2014-05-07,816
CDISCPILOT01,VS,01-701-1015,118,SYSBP,Systolic Blood Pressure,STANDING,152,mmHg,NA,NA,10,WEEK 16,2014-05-07,817
CDISCPILOT01,VS,01-701-1015,119,SYSBP,Systolic Blood Pressure,SUPINE,137,mmHg,NA,NA,11,WEEK 20,2014-05-21,815
CDISCPILOT01,VS,01-701-1015,120,SYSBP,Systolic Blood Pressure,STANDING,NA,mmHg,NA,NA,11,WEEK 20,2014-05-21,816
CDISCPILOT01,VS,01-701-1015,121,SYSBP,Systolic Blood Pressure,STANDING,136,mmHg,NA,NA,11,WEEK 20,2014-05-21,817
CDISCPILOT01,VS,01-701-1015,122,SYSBP,Systolic Blood Pressure,SUPINE,129,mmHg,NA,NA,12,WEEK 24,2014-06-18,815
CDISCPILOT01,VS,01-701-1015,123,SYSBP,Systolic Blood Pressure,STANDING,131,mmHg,NA,NA,12,WEEK 24,2014-06-18,816
CDISCPILOT01,VS,01-701-1015,124,SYSBP,Systolic Blood Pressure,STANDING,137,mmHg,NA,NA,12,WEEK 24,2014-06-18,817
CDISCPILOT01,VS,01-701-1015,125,SYSBP,Systolic Blood Pressure,SUPINE,127,mmHg,NA,NA,13,WEEK 26,2014-07-02,815
CDISCPILOT01,VS,01-701-1015,126,SYSBP,Systolic Blood Pressure,STANDING,128,mmHg,NA,NA,13,WEEK 26,2014-07-02,816
CDISCPILOT01,VS,01-701-1015,127,SYSBP,Systolic Blood Pressure,STANDING,129,mmHg,NA,NA,13,WEEK 26,2014-07-02,817
CDISCPILOT01,VS,01-701-1015,128,TEMP,Temperature,NA,96.9,F,NA,NA,1,SCREENING 1,2013-12-26,NA
CDISCPILOT01,VS,01-701-1015,129,TEMP,Temperature,NA,97.0,F,NA,NA,2,SCREENING 2,2013-12-31,NA
CDISCPILOT01,VS,01-701-1015,130,TEMP,Temperature,NA,NA,F,NA,Y,3,BASELINE,2014-01-02,NA
CDISCPILOT01,VS,01-701-1015,131,TEMP,Temperature,NA,96.6,F,NA,NA,3.5,AMBUL ECG PLACEMENT,2014-01-14,NA
CDISCPILOT01,VS,01-701-1015,132,TEMP,Temperature,NA,97.7,F,NA,NA,4,WEEK 2,2014-01-16,NA
CDISCPILOT01,VS,01-701-1015,133,TEMP,Temperature,NA,97.0,F,NA,NA,5,WEEK 4,2014-01-30,NA
CDISCPILOT01,VS,01-701-1015,134,TEMP,Temperature,NA,NA,F,NA,NA,6,AMBUL ECG REMOVAL,2014-02-01,NA
CDISCPILOT01,VS,01-701-1015,135,TEMP,Temperature,NA,97.4,F,NA,NA,7,WEEK 6,2014-02-12,NA
CDISCPILOT01,VS,01-701-1015,136,TEMP,Temperature,NA,98.0,F,NA,NA,8,WEEK 8,2014-03-05,NA
CDISCPILOT01,VS,01-701-1015,137,TEMP,Temperature,NA,97.4,F,NA,NA,9,WEEK 12,2014-03-26,NA
CDISCPILOT01,VS,01-701-1015,138,TEMP,Temperature,NA,97.9,F,NA,NA,10,WEEK 16,2014-05-07,NA
CDISCPILOT01,VS,01-701-1015,139,TEMP,Temperature,NA,97.4,F,NA,NA,11,WEEK 20,2014-05-21,NA
CDISCPILOT01,VS,01-701-1015,140,TEMP,Temperature,NA,97.7,F,NA,NA,12,WEEK 24,2014-06-18,NA
CDISCPILOT01,VS,01-701-1015,141,TEMP,Temperature,NA,NA,F,NA,NA,13,WEEK 26,2014-07-02,NA
CDISCPILOT01,VS,01-701-1015,142,WEIGHT,Weight,NA,119.0,LB,NA,NA,1,SCREENING 1,2013-12-26,NA
CDISCPILOT01,VS,01-701-1015,143,WEIGHT,Weight,NA,120.0,LB,NA,Y,3,BASELINE,2014-01-02,NA
CDISCPILOT01,VS,01-701-1015,144,WEIGHT,Weight,NA,117.0,LB,NA,NA,4,WEEK 2,2014-01-16,NA
CDISCPILOT01,VS,01-701-1015,145,WEIGHT,Weight,NA,119.0,LB,NA,NA,5,WEEK 4,2014-01-30,NA
CDISCPILOT01,VS,01-701-1015,146,WEIGHT,Weight,NA,117.0,LB,NA,NA,7,WEEK 6,2014-02-12,NA
CDISCPILOT01,VS,01-701-1015,147,WEIGHT,Weight,NA,117.0,LB,NA,NA,8,WEEK 8,2014-03-05,NA
CDISCPILOT01,VS,01-701-1015,148,WEIGHT,Weight,NA,117.0,LB,NA,NA,9,WEEK 12,2014-03-26,NA
CDISCPILOT01,VS,01-701-1015,149,WEIGHT,Weight,NA,117.0,LB,NA,NA,10,WEEK 16,2014-05-07,NA
CDISCPILOT01,VS,01-701-1015,150,WEIGHT,Weight,NA,117.0,LB,NA,NA,11,WEEK 20,2014-05-21,NA
CDISCPILOT01,VS,01-701-1015,151,WEIGHT,Weight,NA,117.0,LB,NA,NA,12,WEEK 24,2014-06-18,NA
CDISCPILOT01,VS,01-701-1015,152,WEIGHT,Weight,NA,118.0,LB,NA,NA,13,WEEK 26,2014-07-02,NA
CDISCPILOT01,VS,01-701-1023,1,DIABP,Diastolic Blood Pressure,SUPINE,86,mmHg,NA,NA,1,SCREENING 1,2012-07-22,815
CDISCPILOT01,VS,01-701-1023,2,DIABP,Diastolic Blood Pressure,STANDING,89,mmHg,NA,NA,1,SCREENING 1,2012-07-22,816
CDISCPILOT01,VS,01-701-1023,3,DIABP,Diastolic Blood Pressure,STANDING,90,mmHg,NA,NA,1,SCREENING 1,2012-07-22,817
CDISCPILOT01,VS,01-701-1023,4,DIABP,Diastolic Blood Pressure,SUPINE,NA,mmHg,NA,NA,2,SCREENING 2,2012-08-03,815
CDISCPILOT01,VS,01-701-1023,5,DIABP,Diastolic Blood Pressure,STANDING,79,mmHg,NA,NA,2,SCREENING 2,2012-08-03,816
CDISCPILOT01,VS,01-701-1023,6,DIABP,Diastolic Blood Pressure,STANDING,85,mmHg,NA,NA,2,SCREENING 2,2012-08-03,817
CDISCPILOT01,VS,01-701-1023,7,DIABP,Diastolic Blood Pressure,SUPINE,84,mmHg,NA,Y,3,BASELINE,2012-08-05,815
CDISCPILOT01,VS,01-701-1023,8,DIABP,Diastolic Blood Pressure,STANDING,86,mmHg,NA,Y,3,BASELINE,2012-08-05,816
CDISCPILOT01,VS,01-701-1023,9,DIABP,Diastolic Blood Pressure,STANDING,88,mmHg,NA,Y,3,BASELINE,2012-08-05,817
CDISCPILOT01,VS,01-701-1023,10,DIABP,Diastolic Blood Pressure,SUPINE,82,mmHg,NA,NA,3.5,AMBUL ECG PLACEMENT,2012-08-26,815
CDISCPILOT01,VS,01-701-1023,11,DIABP,Diastolic Blood Pressure,STANDING,88,mmHg,NA,NA,3.5,AMBUL ECG PLACEMENT,2012-08-26,816
CDISCPILOT01,VS,01-701-1023,12,DIABP,Diastolic Blood Pressure,STANDING,89,mmHg,NA,NA,3.5,AMBUL ECG PLACEMENT,2012-08-26,817
CDISCPILOT01,VS,01-701-1023,13,DIABP,Diastolic Blood Pressure,SUPINE,88,mmHg,NA,NA,4,WEEK 2,2012-08-27,815
CDISCPILOT01,VS,01-701-1023,14,DIABP,Diastolic Blood Pressure,STANDING,86,mmHg,NA,NA,4,WEEK 2,2012-08-27,816
CDISCPILOT01,VS,01-701-1023,15,DIABP,Diastolic Blood Pressure,STANDING,90,mmHg,NA,NA,4,WEEK 2,2012-08-27,817
CDISCPILOT01,VS,01-701-1023,16,DIABP,Diastolic Blood Pressure,SUPINE,86,mmHg,NA,NA,5,WEEK 4,2012-09-02,815
CDISCPILOT01,VS,01-701-1023,17,DIABP,Diastolic Blood Pressure,STANDING,88,mmHg,NA,NA,5,WEEK 4,2012-09-02,816
CDISCPILOT01,VS,01-701-1023,18,DIABP,Diastolic Blood Pressure,STANDING,92,mmHg,NA,NA,5,WEEK 4,2012-09-02,817
CDISCPILOT01,VS,01-701-1023,19,DIABP,Diastolic Blood Pressure,SUPINE,89,mmHg,NA,NA,201,RETRIEVAL,2013-02-18,815
CDISCPILOT01,VS,01-701-1023,20,DIABP,Diastolic Blood Pressure,STANDING,86,mmHg,NA,NA,201,RETRIEVAL,2013-02-18,816
CDISCPILOT01,VS,01-701-1023,21,DIABP,Diastolic Blood Pressure,STANDING,84,mmHg,NA,NA,201,RETRIEVAL,2013-02-18,817
CDISCPILOT01,VS,01-701-1023,22,HEIGHT,Height,NA,64.0,IN,NA,NA,1,SCREENING 1,2012-07-22,NA
CDISCPILOT01,VS,01-701-1023,23,PULSE,Pulse Rate,SUPINE,NA,BEATS/MIN,NA,NA,1,SCREENING 1,2012-07-22,815
CDISCPILOT01,VS,01-701-1023,24,PULSE,Pulse Rate,STANDING,78,BEATS/MIN,NA,NA,1,SCREENING 1,2012-07-22,816
CDISCPILOT01,VS,01-701-1023,25,PULSE,Pulse Rate,STANDING,74,BEATS/MIN,NA,NA,1,SCREENING 1,2012-07-22,817
CDISCPILOT01,VS,01-701-1023,26,PULSE,Pulse Rate,SUPINE,79,BEATS/MIN,NA,NA,2,SCREENING 2,2012-08-03,815
CDISCPILOT01,VS,01-701-1023,27,PULSE,Pulse Rate,STANDING,91,BEATS/MIN,NA,NA,2,SCREENING 2,2012-08-03,816
CDISCPILOT01,VS,01-701-1023,28,PULSE,Pulse Rate,STANDING,92,BEATS/MIN,NA,NA,2,SCREENING 2,2012-08-03,817
CDISCPILOT01,VS,01-701-1023,29,PULSE,Pulse Rate,SUPINE,68,BEATS/MIN,NA,Y,3,BASELINE,2012-08-05,815
CDISCPILOT01,VS,01-701-1023,30,PULSE,Pulse Rate,STANDING,80,BEATS/MIN,NA,Y,3,BASELINE,2012-08-05,816
CDISCPILOT01,VS,01-701-1023,31,PULSE,Pulse Rate,STANDING,NA,BEATS/MIN,NA,Y,3,BASELINE,2012-08-05,817
CDISCPILOT01,VS,01-701-1023,32,PULSE,Pulse Rate,SUPINE,71,BEATS/MIN,NA,NA,3.5,AMBUL ECG PLACEMENT,2012-08-26,815
CDISCPILOT01,VS,01-701-1023,33,PULSE,Pulse Rate,STANDING,79,BEATS/MIN,NA,NA,3.5,AMBUL ECG PLACEMENT,2012-08-26,816
CDISCPILOT01,VS,01-701-1023,34,PULSE,Pulse Rate,STANDING,77,BEATS/MIN,NA,NA,3.5,AMBUL ECG PLACEMENT,2012-08-26,817
CDISCPILOT01,VS,01-701-1023,35,PULSE,Pulse Rate,SUPINE,84,BEATS/MIN,NA,NA,4,WEEK 2,2012-08-27,815
CDISCPILOT01,VS,01-701-1023,36,PULSE,Pulse Rate,STANDING,92,BEATS/MIN,NA,NA,4,WEEK 2,2012-08-27,816
CDISCPILOT01,VS,01-701-1023,37,PULSE,Pulse Rate,STANDING,94,BEATS/MIN,NA,NA,4,WEEK 2,2012-08-27,817
CDISCPILOT01,VS,01-701-1023,38,PULSE,Pulse Rate,SUPINE,64,BEATS/MIN,NA,NA,5,WEEK 4,2012-09-02,815
CDISCPILOT01,VS,01-701-1023,39,PULSE,Pulse Rate,STANDING,76,BEATS/MIN,NA,NA,5,WEEK 4,2012-09-02,816
CDISCPILOT01,VS,01-701-1023,40,PULSE,Pulse Rate,STANDING,70,BEATS/MIN,NA,NA,5,WEEK 4,2012-09-02,817
CDISCPILOT01,VS,01-701-1023,41,PULSE,Pulse Rate,SUPINE,72,BEATS/MIN,NA,NA,201,RETRIEVAL,2013-02-18,815
CDISCPILOT01,VS,01-701-1023,42,PULSE,Pulse Rate,STANDING,84,BEATS/MIN,NA,NA,201,RETRIEVAL,2013-02-18,816
CDISCPILOT01,VS,01-701-1023,43,PULSE,Pulse Rate,STANDING,76,BEATS/MIN,NA,NA,201,RETRIEVAL,2013-02-18,817
CDISCPILOT01,VS,01-701-1023,44,SYSBP,Systolic Blood Pressure,SUPINE,130,mmHg,NA,NA,1,SCREENING 1,2012-07-22,815
CDISCPILOT01,VS,01-701-1023,45,SYSBP,Systolic Blood Pressure,STANDING,132,mmHg,NA,NA,1,SCREENING 1,2012-07-22,816
CDISCPILOT01,VS,01-701-1023,46,SYSBP,Systolic Blood Pressure,STANDING,140,mmHg,NA,NA,1,SCREENING 1,2012-07-22,817
CDISCPILOT01,VS,01-701-1023,47,SYSBP,Systolic Blood Pressure,SUPINE,131,mmHg,NA,NA,2,SCREENING 2,2012-08-03,815
CDISCPILOT01,VS,01-701-1023,48,SYSBP,Systolic Blood Pressure,STANDING,129,mmHg,NA,NA,2,SCREENING 2,2012-08-03,816
CDISCPILOT01,VS,01-701-1023,49,SYSBP,Systolic Blood Pressure,STANDING,NA,mmHg,NA,NA,2,SCREENING 2,2012-08-03,817
CDISCPILOT01,VS,01-701-1023,50,SYSBP,Systolic Blood Pressure,SUPINE,130,mmHg,NA,Y,3,BASELINE,2012-08-05,815
CDISCPILOT01,VS,01-701-1023,51,SYSBP,Systolic Blood Pressure,STANDING,132,mmHg,NA,Y,3,BASELINE,2012-08-05,816
CDISCPILOT01,VS,01-701-1023,52,SYSBP,Systolic Blood Pressure,STANDING,132,mmHg,NA,Y,3,BASELINE,2012-08-05,817
CDISCPILOT01,VS,01-701-1023,53,SYSBP,Systolic Blood Pressure,SUPINE,133,mmHg,NA,NA,3.5,AMBUL ECG PLACEMENT,2012-08-26,815
CDISCPILOT01,VS,01-701-1023,54,SYSBP,Systolic Blood Pressure,STANDING,130,mmHg,NA,NA,3.5,AMBUL ECG PLACEMENT,2012-08-26,816
CDISCPILOT01,VS,01-701-1023,55,SYSBP,Systolic Blood Pressure,STANDING,138,mmHg,NA,NA,3.5,AMBUL ECG PLACEMENT,2012-08-26,817
CDISCPILOT01,VS,01-701-1023,56,SYSBP,Systolic Blood Pressure,SUPINE,122,mmHg,NA,NA,4,WEEK 2,2012-08-27,815
CDISCPILOT01,VS,01-701-1023,57,SYSBP,Systolic Blood Pressure,STANDING,130,mmHg,NA,NA,4,WEEK 2,2012-08-27,816
CDISCPILOT01,VS,01-701-1023,58,SYSBP,Systolic Blood Pressure,STANDING,138,mmHg,NA,NA,4,WEEK 2,2012-08-27,817
CDISCPILOT01,VS,01-701-1023,59,SYSBP,Systolic Blood Pressure,SUPINE,130,mmHg,NA,NA,5,WEEK 4,2012-09-02,815
CDISCPILOT01,VS,01-701-1023,60,SYSBP,Systolic Blood Pressure,STANDING,134,mmHg,NA,NA,5,WEEK 4,2012-09-02,816
CDISCPILOT01,VS,01-701-1023,61,SYSBP,Systolic Blood Pressure,STANDING,136,mmHg,NA,NA,5,WEEK 4,2012-09-02,817
CDISCPILOT01,VS,01-701-1023,62,SYSBP,Systolic Blood Pressure,SUPINE,125,mmHg,NA,NA,201,RETRIEVAL,2013-02-18,815
CDISCPILOT01,VS,01-701-1023,63,SYSBP,Systolic Blood Pressure,STANDING,NA,mmHg,NA,NA,201,RETRIEVAL,2013-02-18,816
CDISCPILOT01,VS,01-701-1023,64,SYSBP,Systolic Blood Pressure,STANDING,130,mmHg,NA,NA,201,RETRIEVAL,2013-02-18,817
CDISCPILOT01,VS,01-701-1023,65,TEMP,Temperature,NA,097.8,F,NA,NA,1,SCREENING 1,2012-07-22,NA
CDISCPILOT01,VS,01-701-1023,66,TEMP,Temperature,NA,097.8,F,NA,NA,2,SCREENING 2,2012-08-03,NA
CDISCPILOT01,VS,01-701-1023,67,TEMP,Temperature,NA,097.3,F,NA,Y,3,BASELINE,2012-08-05,NA
CDISCPILOT01,VS,01-701-1023,68,TEMP,Temperature,NA,097.6,F,NA,NA,3.5,AMBUL ECG PLACEMENT,2012-08-26,NA
CDISCPILOT01,VS,01-701-1023,69,TEMP,Temperature,NA,098.5,F,NA,NA,4,WEEK 2,2012-08-27,NA
CDISCPILOT01,VS,01-701-1023,70,TEMP,Temperature,NA,097.2,F,NA,NA,5,WEEK 4,2012-09-02,NA
CDISCPILOT01,VS,01-701-1023,71,TEMP,Temperature,NA,97.8,F,NA,NA,201,RETRIEVAL,2013-02-18,NA
CDISCPILOT01,VS,01-701-1023,72,WEIGHT,Weight,NA,173.0,LB,NA,NA,1,SCREENING 1,2012-07-22,NA
CDISCPILOT01,VS,01-701-1023,73,WEIGHT,Weight,NA,177.0,LB,NA,Y,3,BASELINE,2012-08-05,NA
CDISCPILOT01,VS,01-701-1023,74,WEIGHT,Weight,NA,178.0,LB,NA,NA,4,WEEK 2,2012-08-27,NA
CDISCPILOT01,VS,01-701-1023,75,WEIGHT,Weight,NA,177.0,LB,NA,NA,5,WEEK 4,2012-09-02,NA
CDISCPILOT01,VS,01-701-1028,1,DIABP,Diastolic Blood Pressure,SUPINE,76,mmHg,NA,NA,1,SCREENING 1,2013-07-11,815
CDISCPILOT01,VS,01-701-1028,2,DIABP,Diastolic Blood Pressure,STANDING,70,mmHg,NA,NA,1,SCREENING 1,2013-07-11,816
CDISCPILOT01,VS,01-701-1028,3,DIABP,Diastolic Blood Pressure,STANDING,73,mmHg,NA,NA,1,SCREENING 1,2013-07-11,817
CDISCPILOT01,VS,01-701-1028,4,DIABP,Diastolic Blood Pressure,SUPINE,76,mmHg,NA,NA,2,SCREENING 2,2013-07-17,815
CDISCPILOT01,VS,01-701-1028,5,DIABP,Diastolic Blood Pressure,STANDING,76,mmHg,NA,NA,2,SCREENING 2,2013-07-17,816
CDISCPILOT01,VS,01-701-1028,6,DIABP,Diastolic Blood Pressure,STANDING,85,mmHg,NA,NA,2,SCREENING 2,2013-07-17,817
CDISCPILOT01,VS,01-701-1028,7,DIABP,Diastolic Blood Pressure,SUPINE,85,mmHg,NA,Y,3,BASELINE,2013-07-19,815
CDISCPILOT01,VS,01-701-1028,8,DIABP,Diastolic Blood Pressure,STANDING,NA,mmHg,NA,Y,3,BASELINE,2013-07-19,816
CDISCPILOT01,VS,01-701-1028,9,DIABP,Diastolic Blood Pressure,STANDING,75,mmHg,NA,Y,3,BASELINE,2013-07-19,817
CDISCPILOT01,VS,01-701-1028,10,DIABP,Diastolic Blood Pressure,SUPINE,82,mmHg,NA,NA,3.5,AMBUL ECG PLACEMENT,2013-07-31,815
CDISCPILOT01,VS,01-701-1028,11,DIABP,Diastolic Blood Pressure,STANDING,82,mmHg,NA,NA,3.5,AMBUL ECG PLACEMENT,2013-07-31,816
CDISCPILOT01,VS,01-701-1028,12,DIABP,Diastolic Blood Pressure,STANDING,84,mmHg,NA,NA,3.5,AMBUL ECG PLACEMENT,2013-07-31,817
CDISCPILOT01,VS,01-701-1028,13,DIABP,Diastolic Blood Pressure,SUPINE,78,mmHg,NA,NA,4,WEEK 2,2013-08-01,815
CDISCPILOT01,VS,01-701-1028,14,DIABP,Diastolic Blood Pressure,STANDING,80,mmHg,NA,NA,4,WEEK 2,2013-08-01,816
CDISCPILOT01,VS,01-701-1028,15,DIABP,Diastolic Blood Pressure,STANDING,80,mmHg,NA,NA,4,WEEK 2,2013-08-01,817
CDISCPILOT01,VS,01-701-1028,16,DIABP,Diastolic Blood Pressure,SUPINE,69,mmHg,NA,NA,5,WEEK 4,2013-08-14,815
CDISCPILOT01,VS,01-701-1028,17,DIABP,Diastolic Blood Pressure,STANDING,NA,mmHg,NA,NA,5,WEEK 4,2013-08-14,816
CDISCPILOT01,VS,01-701-1028,18,DIABP,Diastolic Blood Pressure,STANDING,68,mmHg,NA,NA,5,WEEK 4,2013-08-14,817
CDISCPILOT01,VS,01-701-1028,19,DIABP,Diastolic Blood Pressure,SUPINE,76,mmHg,NA,NA,6,AMBUL ECG REMOVAL,2013-08-16,815
CDISCPILOT01,VS,01-701-1028,20,DIABP,Diastolic Blood Pressure,STANDING,85,mmHg,NA,NA,6,AMBUL ECG REMOVAL,2013-08-16,816
CDISCPILOT01,VS,01-701-1028,21,DIABP,Diastolic Blood Pressure,STANDING,81,mmHg,NA,NA,6,AMBUL ECG REMOVAL,2013-08-16,817
CDISCPILOT01,VS,01-701-1028,22,DIABP,Diastolic Blood Pressure,SUPINE,69,mmHg,NA,NA,7,WEEK 6,2013-08-29,815
CDISCPILOT01,VS,01-701-1028,23,DIABP,Diastolic Blood Pressure,STANDING,77,mmHg,NA,NA,7,WEEK 6,2013-08-29,816
CDISCPILOT01,VS,01-701-1028,24,DIABP,Diastolic Blood Pressure,STANDING,76,mmHg,NA,NA,7,WEEK 6,2013-08-29,817
CDISCPILOT01,VS,01-701-1028,25,DIABP,Diastolic Blood Pressure,SUPINE,76,mmHg,NA,NA,8,WEEK 8,2013-09-10,815
CDISCPILOT01,VS,01-701-1028,26,DIABP,Diastolic Blood Pressure,STANDING,81,mmHg,NA,NA,8,WEEK 8,2013-09-10,816
CDISCPILOT01,VS,01-701-1028,27,DIABP,Diastolic Blood Pressure,STANDING,84,mmHg,NA,NA,8,WEEK 8,2013-09-10,817
CDISCPILOT01,VS,01-701-1028,28,DIABP,Diastolic Blood Pressure,SUPINE,NA,mmHg,NA,NA,9,WEEK 12,2013-10-09,815
CDISCPILOT01,VS,01-701-1028,29,DIABP,Diastolic Blood Pressure,STANDING,83,mmHg,NA,NA,9,WEEK 12,2013-10-09,816
CDISCPILOT01,VS,01-701-1028,30,DIABP,Diastolic Blood Pressure,STANDING,80,mmHg,NA,NA,9,WEEK 12,2013-10-09,817
CDISCPILOT01,VS,01-701-1028,31,DIABP,Diastolic Blood Pressure,SUPINE,75,mmHg,NA,NA,10,WEEK 16,2013-11-06,815
CDISCPILOT01,VS,01-701-1028,32,DIABP,Diastolic Blood Pressure,STANDING,76,mmHg,NA,NA,10,WEEK 16,2013-11-06,816
CDISCPILOT01,VS,01-701-1028,33,DIABP,Diastolic Blood Pressure,STANDING,78,mmHg,NA,NA,10,WEEK 16,2013-11-06,817
CDISCPILOT01,VS,01-701-1028,34,DIABP,Diastolic Blood Pressure,SUPINE,79,mmHg,NA,NA,11,WEEK 20,2013-12-04,815
CDISCPILOT01,VS,01-701-1028,35,DIABP,Diastolic Blood Pressure,STANDING,76,mmHg,NA,NA,11,WEEK 20,2013-12-04,816
CDISCPILOT01,VS,01-701-1028,36,DIABP,Diastolic Blood Pressure,STANDING,77,mmHg,NA,NA,11,WEEK 20,2013-12-04,817
CDISCPILOT01,VS,01-701-1028,37,DIABP,Diastolic Blood Pressure,SUPINE,73,mmHg,NA,NA,12,WEEK 24,2014-01-06,815
CDISCPILOT01,VS,01-701-1028,38,DIABP,Diastolic Blood Pressure,STANDING,72,mmHg,NA,NA,12,WEEK 24,2014-01-06,816
CDISCPILOT01,VS,01-701-1028,39,DIABP,Diastolic Blood Pressure,STANDING,NA,mmHg,NA,NA,12,WEEK 24,2014-01-06,817
CDISCPILOT01,VS,01-701-1028,40,DIABP,Diastolic Blood Pressure,SUPINE,70,mmHg,NA,NA,13,WEEK 26,2014-01-14,815
CDISCPILOT01,VS,01-701-1028,41,DIABP,Diastolic Blood Pressure,STANDING,79,mmHg,NA,NA,13,WEEK 26,2014-01-14,816
CDISCPILOT01,VS,01-701-1028,42,DIABP,Diastolic Blood Pressure,STANDING,77,mmHg,NA,NA,13,WEEK 26,2014-01-14,817
CDISCPILOT01,VS,01-701-1028,43,HEIGHT,Height,NA,70.0,IN,NA,NA,1,SCREENING 1,2013-07-11,NA
CDISCPILOT01,VS,01-701-1028,44,PULSE,Pulse Rate,SUPINE,54,BEATS/MIN,NA,NA,1,SCREENING 1,2013-07-11,815
CDISCPILOT01,VS,01-701-1028,45,PULSE,Pulse Rate,STANDING,59,BEATS/MIN,NA,NA,1,SCREENING 1,2013-07-11,816
CDISCPILOT01,VS,01-701-1028,46,PULSE,Pulse Rate,STANDING,59,BEATS/MIN,NA,NA,1,SCREENING 1,2013-07-11,817
CDISCPILOT01,VS,01-701-1028,47,PULSE,Pulse Rate,SUPINE,68,BEATS/MIN,NA,NA,2,SCREENING 2,2013-07-17,815
CDISCPILOT01,VS,01-701-1028,48,PULSE,Pulse Rate,STANDING,NA,BEATS/MIN,NA,NA,2,SCREENING 2,2013-07-17,816
CDISCPILOT01,VS,01-701-1028,49,PULSE,Pulse Rate,STANDING,74,BEATS/MIN,NA,NA,2,SCREENING 2,2013-07-17,817
CDISCPILOT01,VS,01-701-1028,50,PULSE,Pulse Rate,SUPINE,NA,BEATS/MIN,NA,Y,3,BASELINE,2013-07-19,815
CDISCPILOT01,VS,01-701-1028,51,PULSE,Pulse Rate,STANDING,62,BEATS/MIN,NA,Y,3,BASELINE,2013-07-19,816
CDISCPILOT01,VS,01-701-1028,52,PULSE,Pulse Rate,STANDING,66,BEATS/MIN,NA,Y,3,BASELINE,2013-07-19,817
CDISCPILOT01,VS,01-701-1028,53,PULSE,Pulse Rate,SUPINE,60,BEATS/MIN,NA,NA,3.5,AMBUL ECG PLACEMENT,2013-07-31,815
CDISCPILOT01,VS,01-701-1028,54,PULSE,Pulse Rate,STANDING,66,BEATS/MIN,NA,NA,3.5,AMBUL ECG PLACEMENT,2013-07-31,816
CDISCPILOT01,VS,01-701-1028,55,PULSE,Pulse Rate,STANDING,65,BEATS/MIN,NA,NA,3.5,AMBUL ECG PLACEMENT,2013-07-31,817
CDISCPILOT01,VS,01-701-1028,56,PULSE,Pulse Rate,SUPINE,65,BEATS/MIN,NA,NA,4,WEEK 2,2013-08-01,815
CDISCPILOT01,VS,01-701-1028,57,PULSE,Pulse Rate,STANDING,77,BEATS/MIN,NA,NA,4,WEEK 2,2013-08-01,816
CDISCPILOT01,VS,01-701-1028,58,PULSE,Pulse Rate,STANDING,72,BEATS/MIN,NA,NA,4,WEEK 2,2013-08-01,817
CDISCPILOT01,VS,01-701-1028,59,PULSE,Pulse Rate,SUPINE,68,BEATS/MIN,NA,NA,5,WEEK 4,2013-08-14,815
CDISCPILOT01,VS,01-701-1028,60,PULSE,Pulse Rate,STANDING,81,BEATS/MIN,NA,NA,5,WEEK 4,2013-08-14,816
CDISCPILOT01,VS,01-701-1028,61,PULSE,Pulse Rate,STANDING,76,BEATS/MIN,NA,NA,5,WEEK 4,2013-08-14,817
CDISCPILOT01,VS,01-701-1028,62,PULSE,Pulse Rate,SUPINE,63,BEATS/MIN,NA,NA,6,AMBUL ECG REMOVAL,2013-08-16,815
CDISCPILOT01,VS,01-701-1028,63,PULSE,Pulse Rate,STANDING,68,BEATS/MIN,NA,NA,6,AMBUL ECG REMOVAL,2013-08-16,816
CDISCPILOT01,VS,01-701-1028,64,PULSE,Pulse Rate,STANDING,70,BEATS/MIN,NA,NA,6,AMBUL ECG REMOVAL,2013-08-16,817
CDISCPILOT01,VS,01-701-1028,65,PULSE,Pulse Rate,SUPINE,56,BEATS/MIN,NA,NA,7,WEEK 6,2013-08-29,815
CDISCPILOT01,VS,01-701-1028,66,PULSE,Pulse Rate,STANDING,60,BEATS/MIN,NA,NA,7,WEEK 6,2013-08-29,816
CDISCPILOT01,VS,01-701-1028,67,PULSE,Pulse Rate,STANDING,62,BEATS/MIN,NA,NA,7,WEEK 6,2013-08-29,817
CDISCPILOT01,VS,01-701-1028,68,PULSE,Pulse Rate,SUPINE,67,BEATS/MIN,NA,NA,8,WEEK 8,2013-09-10,815
CDISCPILOT01,VS,01-701-1028,69,PULSE,Pulse Rate,STANDING,76,BEATS/MIN,NA,NA,8,WEEK 8,2013-09-10,816
CDISCPILOT01,VS,01-701-1028,70,PULSE,Pulse Rate,STANDING,81,BEATS/MIN,NA,NA,8,WEEK 8,2013-09-10,817
CDISCPILOT01,VS,01-701-1028,71,PULSE,Pulse Rate,SUPINE,61,BEATS/MIN,NA,NA,9,WEEK 12,2013-10-09,815
CDISCPILOT01,VS,01-701-1028,72,PULSE,Pulse Rate,STANDING,64,BEATS/MIN,NA,NA,9,WEEK 12,2013-10-09,816
CDISCPILOT01,VS,01-701-1028,73,PULSE,Pulse Rate,STANDING,70,BEATS/MIN,NA,NA,9,WEEK 12,2013-10-09,817
CDISCPILOT01,VS,01-701-1028,74,PULSE,Pulse Rate,SUPINE,60,BEATS/MIN,NA,NA,10,WEEK 16,2013-11-06,815
CDISCPILOT01,VS,01-701-1028,75,PULSE,Pulse Rate,STANDING,70,BEATS/MIN,NA,NA,10,WEEK 16,2013-11-06,816
CDISCPILOT01,VS,01-701-1028,76,PULSE,Pulse Rate,STANDING,69,BEATS/MIN,NA,NA,10,WEEK 16,2013-11-06,817
CDISCPILOT01,VS,01-701-1028,77,PULSE,Pulse Rate,SUPINE,NA,BEATS/MIN,NA,NA,11,WEEK 20,2013-12-04,815
CDISCPILOT01,VS,01-701-1028,78,PULSE,Pulse Rate,STANDING,67,BEATS/MIN,NA,NA,11,WEEK 20,2013-12-04,816
CDISCPILOT01,VS,01-701-1028,79,PULSE,Pulse Rate,STANDING,69,BEATS/MIN,NA,NA,11,WEEK 20,2013-12-04,817
CDISCPILOT01,VS,01-701-1028,80,PULSE,Pulse Rate,SUPINE,62,BEATS/MIN,NA,NA,12,WEEK 24,2014-01-06,815
CDISCPILOT01,VS,01-701-1028,81,PULSE,Pulse Rate,STANDING,72,BEATS/MIN,NA,NA,12,WEEK 24,2014-01-06,816
CDISCPILOT01,VS,01-701-1028,82,PULSE,Pulse Rate,STANDING,73,BEATS/MIN,NA,NA,12,WEEK 24,2014-01-06,817
CDISCPILOT01,VS,01-701-1028,83,PULSE,Pulse Rate,SUPINE,53,BEATS/MIN,NA,NA,13,WEEK 26,2014-01-14,815
CDISCPILOT01,VS,01-701-1028,84,PULSE,Pulse Rate,STANDING,NA,BEATS/MIN,NA,NA,13,WEEK 26,2014-01-14,816
CDISCPILOT01,VS,01-701-1028,85,PULSE,Pulse Rate,STANDING,59,BEATS/MIN,NA,NA,13,WEEK 26,2014-01-14,817
CDISCPILOT01,VS,01-701-1028,86,SYSBP,Systolic Blood Pressure,SUPINE,143,mmHg,NA,NA,1,SCREENING 1,2013-07-11,815
CDISCPILOT01,VS,01-701-1028,87,SYSBP,Systolic Blood Pressure,STANDING,140,mmHg,NA,NA,1,SCREENING 1,2013-07-11,816
CDISCPILOT01,VS,01-701-1028,88,SYSBP,Systolic Blood Pressure,STANDING,132,mmHg,NA,NA,1,SCREENING 1,2013-07-11,817
CDISCPILOT01,VS,01-701-1028,89,SYSBP,Systolic Blood Pressure,SUPINE,NA,mmHg,NA,NA,2,SCREENING 2,2013-07-17,815
CDISCPILOT01,VS,01-701-1028,90,SYSBP,Systolic Blood Pressure,STANDING,142,mmHg,NA,NA,2,SCREENING 2,2013-07-17,816
CDISCPILOT01,VS,01-701-1028,91,SYSBP,Systolic Blood Pressure,STANDING,132,mmHg,NA,NA,2,SCREENING 2,2013-07-17,817
CDISCPILOT01,VS,01-701-1028,92,SYSBP,Systolic Blood Pressure,SUPINE,138,mmHg,NA,Y,3,BASELINE,2013-07-19,815
CDISCPILOT01,VS,01-701-1028,93,SYSBP,Systolic Blood Pressure,STANDING,NA,mmHg,NA,Y,3,BASELINE,2013-07-19,816
CDISCPILOT01,VS,01-701-1028,94,SYSBP,Systolic Blood Pressure,STANDING,139,mmHg,NA,Y,3,BASELINE,2013-07-19,817
CDISCPILOT01,VS,01-701-1028,95,SYSBP,Systolic Blood Pressure,SUPINE,138,mmHg,NA,NA,3.5,AMBUL ECG PLACEMENT,2013-07-31,815
CDISCPILOT01,VS,01-701-1028,96,SYSBP,Systolic Blood Pressure,STANDING,137,mmHg,NA,NA,3.5,AMBUL ECG PLACEMENT,2013-07-31,816
CDISCPILOT01,VS,01-701-1028,97,SYSBP,Systolic Blood Pressure,STANDING,NA,mmHg,NA,NA,3.5,AMBUL ECG PLACEMENT,2013-07-31,817
CDISCPILOT01,VS,01-701-1028,98,SYSBP,Systolic Blood Pressure,SUPINE,134,mmHg,NA,NA,4,WEEK 2,2013-08-01,815
CDISCPILOT01,VS,01-701-1028,99,SYSBP,Systolic Blood Pressure,STANDING,138,mmHg,NA,NA,4,WEEK 2,2013-08-01,816
CDISCPILOT01,VS,01-701-1028,100,SYSBP,Systolic Blood Pressure,STANDING,131,mmHg,NA,NA,4,WEEK 2,2013-08-01,817
CDISCPILOT01,VS,01-701-1028,101,SYSBP,Systolic Blood Pressure,SUPINE,130,mmHg,NA,NA,5,WEEK 4,2013-08-14,815
CDISCPILOT01,VS,01-701-1028,102,SYSBP,Systolic Blood Pressure,STANDING,130,mmHg,NA,NA,5,WEEK 4,2013-08-14,816
CDISCPILOT01,VS,01-701-1028,103,SYSBP,Systolic Blood Pressure,STANDING,138,mmHg,NA,NA,5,WEEK 4,2013-08-14,817
CDISCPILOT01,VS,01-701-1028,104,SYSBP,Systolic Blood Pressure,SUPINE,138,mmHg,NA,NA,6,AMBUL ECG REMOVAL,2013-08-16,815
CDISCPILOT01,VS,01-701-1028,105,SYSBP,Systolic Blood Pressure,STANDING,138,mmHg,NA,NA,6,AMBUL ECG REMOVAL,2013-08-16,816
CDISCPILOT01,VS,01-701-1028,106,SYSBP,Systolic Blood Pressure,STANDING,146,mmHg,NA,NA,6,AMBUL ECG REMOVAL,2013-08-16,817
CDISCPILOT01,VS,01-701-1028,107,SYSBP,Systolic Blood Pressure,SUPINE,131,mmHg,NA,NA,7,WEEK 6,2013-08-29,815
CDISCPILOT01,VS,01-701-1028,108,SYSBP,Systolic Blood Pressure,STANDING,131,mmHg,NA,NA,7,WEEK 6,2013-08-29,816
CDISCPILOT01,VS,01-701-1028,109,SYSBP,Systolic Blood Pressure,STANDING,132,mmHg,NA,NA,7,WEEK 6,2013-08-29,817
CDISCPILOT01,VS,01-701-1028,110,SYSBP,Systolic Blood Pressure,SUPINE,137,mmHg,NA,NA,8,WEEK 8,2013-09-10,815
CDISCPILOT01,VS,01-701-1028,111,SYSBP,Systolic Blood Pressure,STANDING,146,mmHg,NA,NA,8,WEEK 8,2013-09-10,816
CDISCPILOT01,VS,01-701-1028,112,SYSBP,Systolic Blood Pressure,STANDING,130,mmHg,NA,NA,8,WEEK 8,2013-09-10,817
CDISCPILOT01,VS,01-701-1028,113,SYSBP,Systolic Blood Pressure,SUPINE,128,mmHg,NA,NA,9,WEEK 12,2013-10-09,815
CDISCPILOT01,VS,01-701-1028,114,SYSBP,Systolic Blood Pressure,STANDING,137,mmHg,NA,NA,9,WEEK 12,2013-10-09,816
CDISCPILOT01,VS,01-701-1028,115,SYSBP,Systolic Blood Pressure,STANDING,138,mmHg,NA,NA,9,WEEK 12,2013-10-09,817
CDISCPILOT01,VS,01-701-1028,116,SYSBP,Systolic Blood Pressure,SUPINE,122,mmHg,NA,NA,10,WEEK 16,2013-11-06,815
CDISCPILOT01,VS,01-701-1028,117,SYSBP,Systolic Blood Pressure,STANDING,130,mmHg,NA,NA,10,WEEK 16,2013-11-06,816
CDISCPILOT01,VS,01-701-1028,118,SYSBP,Systolic Blood Pressure,STANDING,132,mmHg,NA,NA,10,WEEK 16,2013-11-06,817
CDISCPILOT01,VS,01-701-1028,119,SYSBP,Systolic Blood Pressure,SUPINE,NA,mmHg,NA,NA,11,WEEK 20,2013-12-04,815
CDISCPILOT01,VS,01-701-1028,120,SYSBP,Systolic Blood Pressure,STANDING,123,mmHg,NA,NA,11,WEEK 20,2013-12-04,816
CDISCPILOT01,VS,01-701-1028,121,SYSBP,Systolic Blood Pressure,STANDING,NA,mmHg,NA,NA,11,WEEK 20,2013-12-04,817
CDISCPILOT01,VS,01-701-1028,122,SYSBP,Systolic Blood Pressure,SUPINE,NA,mmHg,NA,NA,12,WEEK 24,2014-01-06,815
CDISCPILOT01,VS,01-701-1028,123,SYSBP,Systolic Blood Pressure,STANDING,133,mmHg,NA,NA,12,WEEK 24,2014-01-06,816
CDISCPILOT01,VS,01-701-1028,124,SYSBP,Systolic Blood Pressure,STANDING,131,mmHg,NA,NA,12,WEEK 24,2014-01-06,817
CDISCPILOT01,VS,01-701-1028,125,SYSBP,Systolic Blood Pressure,SUPINE,131,mmHg,NA,NA,13,WEEK 26,2014-01-14,815
CDISCPILOT01,VS,01-701-1028,126,SYSBP,Systolic Blood Pressure,STANDING,118,mmHg,NA,NA,13,WEEK 26,2014-01-14,816
CDISCPILOT01,VS,01-701-1028,127,SYSBP,Systolic Blood Pressure,STANDING,131,mmHg,NA,NA,13,WEEK 26,2014-01-14,817
CDISCPILOT01,VS,01-701-1028,128,TEMP,Temperature,NA,98.5,F,NA,NA,1,SCREENING 1,2013-07-11,NA
CDISCPILOT01,VS,01-701-1028,129,TEMP,Temperature,NA,96.7,F,NA,NA,2,SCREENING 2,2013-07-17,NA
CDISCPILOT01,VS,01-701-1028,130,TEMP,Temperature,NA,98.6,F,NA,Y,3,BASELINE,2013-07-19,NA
CDISCPILOT01,VS,01-701-1028,131,TEMP,Temperature,NA,98.2,F,NA,NA,3.5,AMBUL ECG PLACEMENT,2013-07-31,NA
CDISCPILOT01,VS,01-701-1028,132,TEMP,Temperature,NA,99.0,F,NA,NA,4,WEEK 2,2013-08-01,NA
CDISCPILOT01,VS,01-701-1028,133,TEMP,Temperature,NA,98.5,F,NA,NA,5,WEEK 4,2013-08-14,NA
CDISCPILOT01,VS,01-701-1028,134,TEMP,Temperature,NA,98.2,F,NA,NA,6,AMBUL ECG REMOVAL,2013-08-16,NA
CDISCPILOT01,VS,01-701-1028,135,TEMP,Temperature,NA,97.7,F,NA,NA,7,WEEK 6,2013-08-29,NA
CDISCPILOT01,VS,01-701-1028,136,TEMP,Temperature,NA,98.1,F,NA,NA,8,WEEK 8,2013-09-10,NA
CDISCPILOT01,VS,01-701-1028,137,TEMP,Temperature,NA,98.3,F,NA,NA,9,WEEK 12,2013-10-09,NA
CDISCPILOT01,VS,01-701-1028,138,TEMP,Temperature,NA,97.8,F,NA,NA,10,WEEK 16,2013-11-06,NA
CDISCPILOT01,VS,01-701-1028,139,TEMP,Temperature,NA,97.6,F,NA,NA,11,WEEK 20,2013-12-04,NA
CDISCPILOT01,VS,01-701-1028,140,TEMP,Temperature,NA,98.8,F,NA,NA,12,WEEK 24,2014-01-06,NA
CDISCPILOT01,VS,01-701-1028,141,TEMP,Temperature,NA,97.8,F,NA,NA,13,WEEK 26,2014-01-14,NA
CDISCPILOT01,VS,01-701-1028,142,WEIGHT,Weight,NA,218.0,LB,NA,NA,1,SCREENING 1,2013-07-11,NA
CDISCPILOT01,VS,01-701-1028,143,WEIGHT,Weight,NA,219.0,LB,NA,Y,3,BASELINE,2013-07-19,NA
CDISCPILOT01,VS,01-701-1028,144,WEIGHT,Weight,NA,219.0,LB,NA,NA,4,WEEK 2,2013-08-01,NA
CDISCPILOT01,VS,01-701-1028,145,WEIGHT,Weight,NA,218.0,LB,NA,NA,5,WEEK 4,2013-08-14,NA
CDISCPILOT01,VS,01-701-1028,146,WEIGHT,Weight,NA,217.0,LB,NA,NA,7,WEEK 6,2013-08-29,NA
CDISCPILOT01,VS,01-701-1028,147,WEIGHT,Weight,NA,219.0,LB,NA,NA,8,WEEK 8,2013-09-10,NA
CDISCPILOT01,VS,01-701-1028,148,WEIGHT,Weight,NA,218.0,LB,NA,NA,9,WEEK 12,2013-10-09,NA
CDISCPILOT01,VS,01-701-1028,149,WEIGHT,Weight,NA,220.0,LB,NA,NA,10,WEEK 16,2013-11-06,NA
CDISCPILOT01,VS,01-701-1028,150,WEIGHT,Weight,NA,220.0,LB,NA,NA,11,WEEK 20,2013-12-04,NA
CDISCPILOT01,VS,01-701-1028,151,WEIGHT,Weight,NA,219.0,LB,NA,NA,12,WEEK 24,2014-01-06,NA
CDISCPILOT01,VS,01-701-1028,152,WEIGHT,Weight,NA,220.0,LB,NA,NA,13,WEEK 26,2014-01-14,NA
CDISCPILOT01,VS,01-701-1033,1,DIABP,Diastolic Blood Pressure,SUPINE,82,mmHg,NA,NA,1,SCREENING 1,2014-03-10,815
CDISCPILOT01,VS,01-701-1033,2,DIABP,Diastolic Blood Pressure,STANDING,67,mmHg,NA,NA,1,SCREENING 1,2014-03-10,816
CDISCPILOT01,VS,01-701-1033,3,DIABP,Diastolic Blood Pressure,STANDING,72,mmHg,NA,NA,1,SCREENING 1,2014-03-10,817
CDISCPILOT01,VS,01-701-1033,4,DIABP,Diastolic Blood Pressure,SUPINE,69,mmHg,NA,NA,2,SCREENING 2,2014-03-16,815
CDISCPILOT01,VS,01-701-1033,5,DIABP,Diastolic Blood Pressure,STANDING,60,mmHg,NA,NA,2,SCREENING 2,2014-03-16,816
CDISCPILOT01,VS,01-701-1033,6,DIABP,Diastolic Blood Pressure,STANDING,62,mmHg,NA,NA,2,SCREENING 2,2014-03-16,817
CDISCPILOT01,VS,01-701-1033,7,DIABP,Diastolic Blood Pressure,SUPINE,83,mmHg,NA,Y,3,BASELINE,2014-03-18,815
CDISCPILOT01,VS,01-701-1033,8,DIABP,Diastolic Blood Pressure,STANDING,67,mmHg,NA,Y,3,BASELINE,2014-03-18,816
CDISCPILOT01,VS,01-701-1033,9,DIABP,Diastolic Blood Pressure,STANDING,70,mmHg,NA,Y,3,BASELINE,2014-03-18,817
CDISCPILOT01,VS,01-701-1033,10,DIABP,Diastolic Blood Pressure,SUPINE,84,mmHg,NA,NA,3.5,AMBUL ECG PLACEMENT,2014-03-31,815
CDISCPILOT01,VS,01-701-1033,11,DIABP,Diastolic Blood Pressure,STANDING,81,mmHg,NA,NA,3.5,AMBUL ECG PLACEMENT,2014-03-31,816
CDISCPILOT01,VS,01-701-1033,12,DIABP,Diastolic Blood Pressure,STANDING,85,mmHg,NA,NA,3.5,AMBUL ECG PLACEMENT,2014-03-31,817
CDISCPILOT01,VS,01-701-1033,13,DIABP,Diastolic Blood Pressure,SUPINE,84,mmHg,NA,NA,4,WEEK 2,2014-04-01,815
CDISCPILOT01,VS,01-701-1033,14,DIABP,Diastolic Blood Pressure,STANDING,72,mmHg,NA,NA,4,WEEK 2,2014-04-01,816
CDISCPILOT01,VS,01-701-1033,15,DIABP,Diastolic Blood Pressure,STANDING,76,mmHg,NA,NA,4,WEEK 2,2014-04-01,817
CDISCPILOT01,VS,01-701-1033,16,DIABP,Diastolic Blood Pressure,SUPINE,76,mmHg,NA,NA,5,WEEK 4,2014-04-14,815
CDISCPILOT01,VS,01-701-1033,17,DIABP,Diastolic Blood Pressure,STANDING,67,mmHg,NA,NA,5,WEEK 4,2014-04-14,816
CDISCPILOT01,VS,01-701-1033,18,DIABP,Diastolic Blood Pressure,STANDING,67,mmHg,NA,NA,5,WEEK 4,2014-04-14,817
CDISCPILOT01,VS,01-701-1033,19,DIABP,Diastolic Blood Pressure,SUPINE,79,mmHg,NA,NA,201,RETRIEVAL,2014-09-15,815
CDISCPILOT01,VS,01-701-1033,20,DIABP,Diastolic Blood Pressure,STANDING,71,mmHg,NA,NA,201,RETRIEVAL,2014-09-15,816
CDISCPILOT01,VS,01-701-1033,21,DIABP,Diastolic Blood Pressure,STANDING,60,mmHg,NA,NA,201,RETRIEVAL,2014-09-15,817
CDISCPILOT01,VS,01-701-1033,22,HEIGHT,Height,NA,69.0,IN,NA,NA,1,SCREENING 1,2014-03-10,NA
CDISCPILOT01,VS,01-701-1033,23,PULSE,Pulse Rate,SUPINE,59,BEATS/MIN,NA,NA,1,SCREENING 1,2014-03-10,815
CDISCPILOT01,VS,01-701-1033,24,PULSE,Pulse Rate,STANDING,70,BEATS/MIN,NA,NA,1,SCREENING 1,2014-03-10,816
CDISCPILOT01,VS,01-701-1033,25,PULSE,Pulse Rate,STANDING,67,BEATS/MIN,NA,NA,1,SCREENING 1,2014-03-10,817
CDISCPILOT01,VS,01-701-1033,26,PULSE,Pulse Rate,SUPINE,NA,BEATS/MIN,NA,NA,2,SCREENING 2,2014-03-16,815
CDISCPILOT01,VS,01-701-1033,27,PULSE,Pulse Rate,STANDING,80,BEATS/MIN,NA,NA,2,SCREENING 2,2014-03-16,816
CDISCPILOT01,VS,01-701-1033,28,PULSE,Pulse Rate,STANDING,82,BEATS/MIN,NA,NA,2,SCREENING 2,2014-03-16,817
CDISCPILOT01,VS,01-701-1033,29,PULSE,Pulse Rate,SUPINE,55,BEATS/MIN,NA,Y,3,BASELINE,2014-03-18,815
CDISCPILOT01,VS,01-701-1033,30,PULSE,Pulse Rate,STANDING,64,BEATS/MIN,NA,Y,3,BASELINE,2014-03-18,816
CDISCPILOT01,VS,01-701-1033,31,PULSE,Pulse Rate,STANDING,62,BEATS/MIN,NA,Y,3,BASELINE,2014-03-18,817
CDISCPILOT01,VS,01-701-1033,32,PULSE,Pulse Rate,SUPINE,62,BEATS/MIN,NA,NA,3.5,AMBUL ECG PLACEMENT,2014-03-31,815
CDISCPILOT01,VS,01-701-1033,33,PULSE,Pulse Rate,STANDING,NA,BEATS/MIN,NA,NA,3.5,AMBUL ECG PLACEMENT,2014-03-31,816
CDISCPILOT01,VS,01-701-1033,34,PULSE,Pulse Rate,STANDING,60,BEATS/MIN,NA,NA,3.5,AMBUL ECG PLACEMENT,2014-03-31,817
CDISCPILOT01,VS,01-701-1033,35,PULSE,Pulse Rate,SUPINE,59,BEATS/MIN,NA,NA,4,WEEK 2,2014-04-01,815
CDISCPILOT01,VS,01-701-1033,36,PULSE,Pulse Rate,STANDING,62,BEATS/MIN,NA,NA,4,WEEK 2,2014-04-01,816
CDISCPILOT01,VS,01-701-1033,37,PULSE,Pulse Rate,STANDING,62,BEATS/MIN,NA,NA,4,WEEK 2,2014-04-01,817
CDISCPILOT01,VS,01-701-1033,38,PULSE,Pulse Rate,SUPINE,54,BEATS/MIN,NA,NA,5,WEEK 4,2014-04-14,815
CDISCPILOT01,VS,01-701-1033,39,PULSE,Pulse Rate,STANDING,57,BEATS/MIN,NA,NA,5,WEEK 4,2014-04-14,816
CDISCPILOT01,VS,01-701-1033,40,PULSE,Pulse Rate,STANDING,58,BEATS/MIN,NA,NA,5,WEEK 4,2014-04-14,817
CDISCPILOT01,VS,01-701-1033,41,PULSE,Pulse Rate,SUPINE,50,BEATS/MIN,NA,NA,201,RETRIEVAL,2014-09-15,815
CDISCPILOT01,VS,01-701-1033,42,PULSE,Pulse Rate,STANDING,55,BEATS/MIN,NA,NA,201,RETRIEVAL,2014-09-15,816
CDISCPILOT01,VS,01-701-1033,43,PULSE,Pulse Rate,STANDING,50,BEATS/MIN,NA,NA,201,RETRIEVAL,2014-09-15,817
CDISCPILOT01,VS,01-701-1033,44,SYSBP,Systolic Blood Pressure,SUPINE,128,mmHg,NA,NA,1,SCREENING 1,2014-03-10,815
CDISCPILOT01,VS,01-701-1033,45,SYSBP,Systolic Blood Pressure,STANDING,NA,mmHg,NA,NA,1,SCREENING 1,2014-03-10,816
CDISCPILOT01,VS,01-701-1033,46,SYSBP,Systolic Blood Pressure,STANDING,121,mmHg,NA,NA,1,SCREENING 1,2014-03-10,817
CDISCPILOT01,VS,01-701-1033,47,SYSBP,Systolic Blood Pressure,SUPINE,NA,mmHg,NA,NA,2,SCREENING 2,2014-03-16,815
CDISCPILOT01,VS,01-701-1033,48,SYSBP,Systolic Blood Pressure,STANDING,NA,mmHg,NA,NA,2,SCREENING 2,2014-03-16,816
CDISCPILOT01,VS,01-701-1033,49,SYSBP,Systolic Blood Pressure,STANDING,124,mmHg,NA,NA,2,SCREENING 2,2014-03-16,817
CDISCPILOT01,VS,01-701-1033,50,SYSBP,Systolic Blood Pressure,SUPINE,136,mmHg,NA,Y,3,BASELINE,2014-03-18,815
CDISCPILOT01,VS,01-701-1033,51,SYSBP,Systolic Blood Pressure,STANDING,116,mmHg,NA,Y,3,BASELINE,2014-03-18,816
CDISCPILOT01,VS,01-701-1033,52,SYSBP,Systolic Blood Pressure,STANDING,NA,mmHg,NA,Y,3,BASELINE,2014-03-18,817
CDISCPILOT01,VS,01-701-1033,53,SYSBP,Systolic Blood Pressure,SUPINE,151,mmHg,NA,NA,3.5,AMBUL ECG PLACEMENT,2014-03-31,815
CDISCPILOT01,VS,01-701-1033,54,SYSBP,Systolic Blood Pressure,STANDING,139,mmHg,NA,NA,3.5,AMBUL ECG PLACEMENT,2014-03-31,816
CDISCPILOT01,VS,01-701-1033,55,SYSBP,Systolic Blood Pressure,STANDING,139,mmHg,NA,NA,3.5,AMBUL ECG PLACEMENT,2014-03-31,817
CDISCPILOT01,VS,01-701-1033,56,SYSBP,Systolic Blood Pressure,SUPINE,138,mmHg,NA,NA,4,WEEK 2,2014-04-01,815
CDISCPILOT01,VS,01-701-1033,57,SYSBP,Systolic Blood Pressure,STANDING,118,mmHg,NA,NA,4,WEEK 2,2014-04-01,816
CDISCPILOT01,VS,01-701-1033,58,SYSBP,Systolic Blood Pressure,STANDING,130,mmHg,NA,NA,4,WEEK 2,2014-04-01,817
CDISCPILOT01,VS,01-701-1033,59,SYSBP,Systolic Blood Pressure,SUPINE,130,mmHg,NA,NA,5,WEEK 4,2014-04-14,815
CDISCPILOT01,VS,01-701-1033,60,SYSBP,Systolic Blood Pressure,STANDING,122,mmHg,NA,NA,5,WEEK 4,2014-04-14,816
CDISCPILOT01,VS,01-701-1033,61,SYSBP,Systolic Blood Pressure,STANDING,NA,mmHg,NA,NA,5,WEEK 4,2014-04-14,817
CDISCPILOT01,VS,01-701-1033,62,SYSBP,Systolic Blood Pressure,SUPINE,NA,mmHg,NA,NA,201,RETRIEVAL,2014-09-15,815
CDISCPILOT01,VS,01-701-1033,63,SYSBP,Systolic Blood Pressure,STANDING,122,mmHg,NA,NA,201,RETRIEVAL,2014-09-15,816
CDISCPILOT01,VS,01-701-1033,64,SYSBP,Systolic Blood Pressure,STANDING,123,mmHg,NA,NA,201,RETRIEVAL,2014-09-15,817
CDISCPILOT01,VS,01-701-1033,65,TEMP,Temperature,NA,98.7,F,NA,NA,1,SCREENING 1,2014-03-10,NA
CDISCPILOT01,VS,01-701-1033,66,TEMP,Temperature,NA,NA,F,NA,NA,2,SCREENING 2,2014-03-16,NA
CDISCPILOT01,VS,01-701-1033,67,TEMP,Temperature,NA,NA,F,NA,Y,3,BASELINE,2014-03-18,NA
CDISCPILOT01,VS,01-701-1033,68,TEMP,Temperature,NA,98.0,F,NA,NA,3.5,AMBUL ECG PLACEMENT,2014-03-31,NA
CDISCPILOT01,VS,01-701-1033,69,TEMP,Temperature,NA,98.1,F,NA,NA,4,WEEK 2,2014-04-01,NA
CDISCPILOT01,VS,01-701-1033,70,TEMP,Temperature,NA,98.1,F,NA,NA,5,WEEK 4,2014-04-14,NA
CDISCPILOT01,VS,01-701-1033,71,TEMP,Temperature,NA,98.1,F,NA,NA,201,RETRIEVAL,2014-09-15,NA
CDISCPILOT01,VS,01-701-1033,72,WEIGHT,Weight,NA,195.0,LB,NA,NA,1,SCREENING 1,2014-03-10,NA
CDISCPILOT01,VS,01-701-1033,73,WEIGHT,Weight,NA,195.0,LB,NA,Y,3,BASELINE,2014-03-18,NA
CDISCPILOT01,VS,01-701-1033,74,WEIGHT,Weight,NA,NA,LB,NA,NA,4,WEEK 2,2014-04-01,NA
CDISCPILOT01,VS,01-701-1033,75,WEIGHT,Weight,NA,195.0,LB,NA,NA,5,WEEK 4,2014-04-14,NA
CDISCPILOT01,VS,01-701-1034,1,DIABP,Diastolic Blood Pressure,SUPINE,58,mmHg,NA,NA,1,SCREENING 1,2014-06-24,815
CDISCPILOT01,VS,01-701-1034,2,DIABP,Diastolic Blood Pressure,STANDING,NA,mmHg,NA,NA,1,SCREENING 1,2014-06-24,816
CDISCPILOT01,VS,01-701-1034,3,DIABP,Diastolic Blood Pressure,STANDING,79,mmHg,NA,NA,1,SCREENING 1,2014-06-24,817
CDISCPILOT01,VS,01-701-1034,4,DIABP,Diastolic Blood Pressure,SUPINE,62,mmHg,NA,NA,2,SCREENING 2,2014-06-29,815
CDISCPILOT01,VS,01-701-1034,5,DIABP,Diastolic Blood Pressure,STANDING,81,mmHg,NA,NA,2,SCREENING 2,2014-06-29,816
CDISCPILOT01,VS,01-701-1034,6,DIABP,Diastolic Blood Pressure,STANDING,NA,mmHg,NA,NA,2,SCREENING 2,2014-06-29,817
CDISCPILOT01,VS,01-701-1034,7,DIABP,Diastolic Blood Pressure,SUPINE,60,mmHg,NA,Y,3,BASELINE,2014-07-01,815
CDISCPILOT01,VS,01-701-1034,8,DIABP,Diastolic Blood Pressure,STANDING,75,mmHg,NA,Y,3,BASELINE,2014-07-01,816
CDISCPILOT01,VS,01-701-1034,9,DIABP,Diastolic Blood Pressure,STANDING,82,mmHg,NA,Y,3,BASELINE,2014-07-01,817
CDISCPILOT01,VS,01-701-1034,10,DIABP,Diastolic Blood Pressure,SUPINE,81,mmHg,NA,NA,4,WEEK 2,2014-07-15,815
CDISCPILOT01,VS,01-701-1034,11,DIABP,Diastolic Blood Pressure,STANDING,101,mmHg,NA,NA,4,WEEK 2,2014-07-15,816
CDISCPILOT01,VS,01-701-1034,12,DIABP,Diastolic Blood Pressure,STANDING,84,mmHg,NA,NA,4,WEEK 2,2014-07-15,817
CDISCPILOT01,VS,01-701-1034,13,DIABP,Diastolic Blood Pressure,SUPINE,NA,mmHg,NA,NA,5,WEEK 4,2014-07-29,815
CDISCPILOT01,VS,01-701-1034,14,DIABP,Diastolic Blood Pressure,STANDING,69,mmHg,NA,NA,5,WEEK 4,2014-07-29,816
CDISCPILOT01,VS,01-701-1034,15,DIABP,Diastolic Blood Pressure,STANDING,71,mmHg,NA,NA,5,WEEK 4,2014-07-29,817
CDISCPILOT01,VS,01-701-1034,16,DIABP,Diastolic Blood Pressure,SUPINE,54,mmHg,NA,NA,6,AMBUL ECG REMOVAL,2014-07-31,815
CDISCPILOT01,VS,01-701-1034,17,DIABP,Diastolic Blood Pressure,STANDING,65,mmHg,NA,NA,6,AMBUL ECG REMOVAL,2014-07-31,816
CDISCPILOT01,VS,01-701-1034,18,DIABP,Diastolic Blood Pressure,STANDING,61,mmHg,NA,NA,6,AMBUL ECG REMOVAL,2014-07-31,817
CDISCPILOT01,VS,01-701-1034,19,DIABP,Diastolic Blood Pressure,SUPINE,57,mmHg,NA,NA,7,WEEK 6,2014-08-11,815
CDISCPILOT01,VS,01-701-1034,20,DIABP,Diastolic Blood Pressure,STANDING,76,mmHg,NA,NA,7,WEEK 6,2014-08-11,816
CDISCPILOT01,VS,01-701-1034,21,DIABP,Diastolic Blood Pressure,STANDING,80,mmHg,NA,NA,7,WEEK 6,2014-08-11,817
CDISCPILOT01,VS,01-701-1034,22,DIABP,Diastolic Blood Pressure,SUPINE,73,mmHg,NA,NA,8,WEEK 8,2014-08-26,815
CDISCPILOT01,VS,01-701-1034,23,DIABP,Diastolic Blood Pressure,STANDING,80,mmHg,NA,NA,8,WEEK 8,2014-08-26,816
CDISCPILOT01,VS,01-701-1034,24,DIABP,Diastolic Blood Pressure,STANDING,76,mmHg,NA,NA,8,WEEK 8,2014-08-26,817
CDISCPILOT01,VS,01-701-1034,25,DIABP,Diastolic Blood Pressure,SUPINE,71,mmHg,NA,NA,9,WEEK 12,2014-09-25,815
CDISCPILOT01,VS,01-701-1034,26,DIABP,Diastolic Blood Pressure,STANDING,66,mmHg,NA,NA,9,WEEK 12,2014-09-25,816
CDISCPILOT01,VS,01-701-1034,27,DIABP,Diastolic Blood Pressure,STANDING,63,mmHg,NA,NA,9,WEEK 12,2014-09-25,817
CDISCPILOT01,VS,01-701-1034,28,DIABP,Diastolic Blood Pressure,SUPINE,NA,mmHg,NA,NA,10,WEEK 16,2014-10-21,815
CDISCPILOT01,VS,01-701-1034,29,DIABP,Diastolic Blood Pressure,STANDING,77,mmHg,NA,NA,10,WEEK 16,2014-10-21,816
CDISCPILOT01,VS,01-701-1034,30,DIABP,Diastolic Blood Pressure,STANDING,72,mmHg,NA,NA,10,WEEK 16,2014-10-21,817
CDISCPILOT01,VS,01-701-1034,31,DIABP,Diastolic Blood Pressure,SUPINE,78,mmHg,NA,NA,11,WEEK 20,2014-11-18,815
CDISCPILOT01,VS,01-701-1034,32,DIABP,Diastolic Blood Pressure,STANDING,NA,mmHg,NA,NA,11,WEEK 20,2014-11-18,816
CDISCPILOT01,VS,01-701-1034,33,DIABP,Diastolic Blood Pressure,STANDING,72,mmHg,NA,NA,11,WEEK 20,2014-11-18,817
CDISCPILOT01,VS,01-701-1034,34,DIABP,Diastolic Blood Pressure,SUPINE,81,mmHg,NA,NA,12,WEEK 24,2014-12-17,815
CDISCPILOT01,VS,01-701-1034,35,DIABP,Diastolic Blood Pressure,STANDING,97,mmHg,NA,NA,12,WEEK 24,2014-12-17,816
CDISCPILOT01,VS,01-701-1034,36,DIABP,Diastolic Blood Pressure,STANDING,NA,mmHg,NA,NA,12,WEEK 24,2014-12-17,817
CDISCPILOT01,VS,01-701-1034,37,DIABP,Diastolic Blood Pressure,SUPINE,67,mmHg,NA,NA,13,WEEK 26,2014-12-30,815
CDISCPILOT01,VS,01-701-1034,38,DIABP,Diastolic Blood Pressure,STANDING,93,mmHg,NA,NA,13,WEEK 26,2014-12-30,816
CDISCPILOT01,VS,01-701-1034,39,DIABP,Diastolic Blood Pressure,STANDING,66,mmHg,NA,NA,13,WEEK 26,2014-12-30,817
CDISCPILOT01,VS,01-701-1034,40,HEIGHT,Height,NA,61.0,IN,NA,NA,1,SCREENING 1,2014-06-24,NA
CDISCPILOT01,VS,01-701-1034,41,PULSE,Pulse Rate,SUPINE,69,BEATS/MIN,NA,NA,1,SCREENING 1,2014-06-24,815
CDISCPILOT01,VS,01-701-1034,42,PULSE,Pulse Rate,STANDING,NA,BEATS/MIN,NA,NA,1,SCREENING 1,2014-06-24,816
CDISCPILOT01,VS,01-701-1034,43,PULSE,Pulse Rate,STANDING,74,BEATS/MIN,NA,NA,1,SCREENING 1,2014-06-24,817
CDISCPILOT01,VS,01-701-1034,44,PULSE,Pulse Rate,SUPINE,NA,BEATS/MIN,NA,NA,2,SCREENING 2,2014-06-29,815
CDISCPILOT01,VS,01-701-1034,45,PULSE,Pulse Rate,STANDING,79,BEATS/MIN,NA,NA,2,SCREENING 2,2014-06-29,816
CDISCPILOT01,VS,01-701-1034,46,PULSE,Pulse Rate,STANDING,79,BEATS/MIN,NA,NA,2,SCREENING 2,2014-06-29,817
CDISCPILOT01,VS,01-701-1034,47,PULSE,Pulse Rate,SUPINE,76,BEATS/MIN,NA,Y,3,BASELINE,2014-07-01,815
CDISCPILOT01,VS,01-701-1034,48,PULSE,Pulse Rate,STANDING,83,BEATS/MIN,NA,Y,3,BASELINE,2014-07-01,816
CDISCPILOT01,VS,01-701-1034,49,PULSE,Pulse Rate,STANDING,80,BEATS/MIN,NA,Y,3,BASELINE,2014-07-01,817
CDISCPILOT01,VS,01-701-1034,50,PULSE,Pulse Rate,SUPINE,86,BEATS/MIN,NA,NA,4,WEEK 2,2014-07-15,815
CDISCPILOT01,VS,01-701-1034,51,PULSE,Pulse Rate,STANDING,91,BEATS/MIN,NA,NA,4,WEEK 2,2014-07-15,816
CDISCPILOT01,VS,01-701-1034,52,PULSE,Pulse Rate,STANDING,86,BEATS/MIN,NA,NA,4,WEEK 2,2014-07-15,817
CDISCPILOT01,VS,01-701-1034,53,PULSE,Pulse Rate,SUPINE,87,BEATS/MIN,NA,NA,5,WEEK 4,2014-07-29,815
CDISCPILOT01,VS,01-701-1034,54,PULSE,Pulse Rate,STANDING,NA,BEATS/MIN,NA,NA,5,WEEK 4,2014-07-29,816
CDISCPILOT01,VS,01-701-1034,55,PULSE,Pulse Rate,STANDING,88,BEATS/MIN,NA,NA,5,WEEK 4,2014-07-29,817
CDISCPILOT01,VS,01-701-1034,56,PULSE,Pulse Rate,SUPINE,83,BEATS/MIN,NA,NA,6,AMBUL ECG REMOVAL,2014-07-31,815
CDISCPILOT01,VS,01-701-1034,57,PULSE,Pulse Rate,STANDING,90,BEATS/MIN,NA,NA,6,AMBUL ECG REMOVAL,2014-07-31,816
CDISCPILOT01,VS,01-701-1034,58,PULSE,Pulse Rate,STANDING,86,BEATS/MIN,NA,NA,6,AMBUL ECG REMOVAL,2014-07-31,817
CDISCPILOT01,VS,01-701-1034,59,PULSE,Pulse Rate,SUPINE,97,BEATS/MIN,NA,NA,7,WEEK 6,2014-08-11,815
CDISCPILOT01,VS,01-701-1034,60,PULSE,Pulse Rate,STANDING,93,BEATS/MIN,NA,NA,7,WEEK 6,2014-08-11,816
CDISCPILOT01,VS,01-701-1034,61,PULSE,Pulse Rate,STANDING,94,BEATS/MIN,NA,NA,7,WEEK 6,2014-08-11,817
CDISCPILOT01,VS,01-701-1034,62,PULSE,Pulse Rate,SUPINE,78,BEATS/MIN,NA,NA,8,WEEK 8,2014-08-26,815
CDISCPILOT01,VS,01-701-1034,63,PULSE,Pulse Rate,STANDING,NA,BEATS/MIN,NA,NA,8,WEEK 8,2014-08-26,816
CDISCPILOT01,VS,01-701-1034,64,PULSE,Pulse Rate,STANDING,71,BEATS/MIN,NA,NA,8,WEEK 8,2014-08-26,817
CDISCPILOT01,VS,01-701-1034,65,PULSE,Pulse Rate,SUPINE,66,BEATS/MIN,NA,NA,9,WEEK 12,2014-09-25,815
CDISCPILOT01,VS,01-701-1034,66,PULSE,Pulse Rate,STANDING,70,BEATS/MIN,NA,NA,9,WEEK 12,2014-09-25,816
CDISCPILOT01,VS,01-701-1034,67,PULSE,Pulse Rate,STANDING,69,BEATS/MIN,NA,NA,9,WEEK 12,2014-09-25,817
CDISCPILOT01,VS,01-701-1034,68,PULSE,Pulse Rate,SUPINE,74,BEATS/MIN,NA,NA,10,WEEK 16,2014-10-21,815
CDISCPILOT01,VS,01-701-1034,69,PULSE,Pulse Rate,STANDING,NA,BEATS/MIN,NA,NA,10,WEEK 16,2014-10-21,816
CDISCPILOT01,VS,01-701-1034,70,PULSE,Pulse Rate,STANDING,78,BEATS/MIN,NA,NA,10,WEEK 16,2014-10-21,817
CDISCPILOT01,VS,01-701-1034,71,PULSE,Pulse Rate,SUPINE,86,BEATS/MIN,NA,NA,11,WEEK 20,2014-11-18,815
CDISCPILOT01,VS,01-701-1034,72,PULSE,Pulse Rate,STANDING,84,BEATS/MIN,NA,NA,11,WEEK 20,2014-11-18,816
CDISCPILOT01,VS,01-701-1034,73,PULSE,Pulse Rate,STANDING,80,BEATS/MIN,NA,NA,11,WEEK 20,2014-11-18,817
CDISCPILOT01,VS,01-701-1034,74,PULSE,Pulse Rate,SUPINE,NA,BEATS/MIN,NA,NA,12,WEEK 24,2014-12-17,815
CDISCPILOT01,VS,01-701-1034,75,PULSE,Pulse Rate,STANDING,97,BEATS/MIN,NA,NA,12,WEEK 24,2014-12-17,816
CDISCPILOT01,VS,01-701-1034,76,PULSE,Pulse Rate,STANDING,91,BEATS/MIN,NA,NA,12,WEEK 24,2014-12-17,817
CDISCPILOT01,VS,01-701-1034,77,PULSE,Pulse Rate,SUPINE,74,BEATS/MIN,NA,NA,13,WEEK 26,2014-12-30,815
CDISCPILOT01,VS,01-701-1034,78,PULSE,Pulse Rate,STANDING,86,BEATS/MIN,NA,NA,13,WEEK 26,2014-12-30,816
CDISCPILOT01,VS,01-701-1034,79,PULSE,Pulse Rate,STANDING,76,BEATS/MIN,NA,NA,13,WEEK 26,2014-12-30,817
CDISCPILOT01,VS,01-701-1034,80,SYSBP,Systolic Blood Pressure,SUPINE,160,mmHg,NA,NA,1,SCREENING 1,2014-06-24,815
CDISCPILOT01,VS,01-701-1034,81,SYSBP,Systolic Blood Pressure,STANDING,183,mmHg,NA,NA,1,SCREENING 1,2014-06-24,816
CDISCPILOT01,VS,01-701-1034,82,SYSBP,Systolic Blood Pressure,STANDING,151,mmHg,NA,NA,1,SCREENING 1,2014-06-24,817
CDISCPILOT01,VS,01-701-1034,83,SYSBP,Systolic Blood Pressure,SUPINE,158,mmHg,NA,NA,2,SCREENING 2,2014-06-29,815
CDISCPILOT01,VS,01-701-1034,84,SYSBP,Systolic Blood Pressure,STANDING,155,mmHg,NA,NA,2,SCREENING 2,2014-06-29,816
CDISCPILOT01,VS,01-701-1034,85,SYSBP,Systolic Blood Pressure,STANDING,155,mmHg,NA,NA,2,SCREENING 2,2014-06-29,817
CDISCPILOT01,VS,01-701-1034,86,SYSBP,Systolic Blood Pressure,SUPINE,163,mmHg,NA,Y,3,BASELINE,2014-07-01,815
CDISCPILOT01,VS,01-701-1034,87,SYSBP,Systolic Blood Pressure,STANDING,NA,mmHg,NA,Y,3,BASELINE,2014-07-01,816
CDISCPILOT01,VS,01-701-1034,88,SYSBP,Systolic Blood Pressure,STANDING,168,mmHg,NA,Y,3,BASELINE,2014-07-01,817
CDISCPILOT01,VS,01-701-1034,89,SYSBP,Systolic Blood Pressure,SUPINE,183,mmHg,NA,NA,4,WEEK 2,2014-07-15,815
CDISCPILOT01,VS,01-701-1034,90,SYSBP,Systolic Blood Pressure,STANDING,191,mmHg,NA,NA,4,WEEK 2,2014-07-15,816
CDISCPILOT01,VS,01-701-1034,91,SYSBP,Systolic Blood Pressure,STANDING,161,mmHg,NA,NA,4,WEEK 2,2014-07-15,817
CDISCPILOT01,VS,01-701-1034,92,SYSBP,Systolic Blood Pressure,SUPINE,NA,mmHg,NA,NA,5,WEEK 4,2014-07-29,815
CDISCPILOT01,VS,01-701-1034,93,SYSBP,Systolic Blood Pressure,STANDING,170,mmHg,NA,NA,5,WEEK 4,2014-07-29,816
CDISCPILOT01,VS,01-701-1034,94,SYSBP,Systolic Blood Pressure,STANDING,169,mmHg,NA,NA,5,WEEK 4,2014-07-29,817
CDISCPILOT01,VS,01-701-1034,95,SYSBP,Systolic Blood Pressure,SUPINE,140,mmHg,NA,NA,6,AMBUL ECG REMOVAL,2014-07-31,815
CDISCPILOT01,VS,01-701-1034,96,SYSBP,Systolic Blood Pressure,STANDING,166,mmHg,NA,NA,6,AMBUL ECG REMOVAL,2014-07-31,816
CDISCPILOT01,VS,01-701-1034,97,SYSBP,Systolic Blood Pressure,STANDING,159,mmHg,NA,NA,6,AMBUL ECG REMOVAL,2014-07-31,817
CDISCPILOT01,VS,01-701-1034,98,SYSBP,Systolic Blood Pressure,SUPINE,145,mmHg,NA,NA,7,WEEK 6,2014-08-11,815
CDISCPILOT01,VS,01-701-1034,99,SYSBP,Systolic Blood Pressure,STANDING,174,mmHg,NA,NA,7,WEEK 6,2014-08-11,816
CDISCPILOT01,VS,01-701-1034,100,SYSBP,Systolic Blood Pressure,STANDING,170,mmHg,NA,NA,7,WEEK 6,2014-08-11,817
CDISCPILOT01,VS,01-701-1034,101,SYSBP,Systolic Blood Pressure,SUPINE,188,mmHg,NA,NA,8,WEEK 8,2014-08-26,815
CDISCPILOT01,VS,01-701-1034,102,SYSBP,Systolic Blood Pressure,STANDING,197,mmHg,NA,NA,8,WEEK 8,2014-08-26,816
CDISCPILOT01,VS,01-701-1034,103,SYSBP,Systolic Blood Pressure,STANDING,198,mmHg,NA,NA,8,WEEK 8,2014-08-26,817
CDISCPILOT01,VS,01-701-1034,104,SYSBP,Systolic Blood Pressure,SUPINE,145,mmHg,NA,NA,9,WEEK 12,2014-09-25,815
CDISCPILOT01,VS,01-701-1034,105,SYSBP,Systolic Blood Pressure,STANDING,150,mmHg,NA,NA,9,WEEK 12,2014-09-25,816
CDISCPILOT01,VS,01-701-1034,106,SYSBP,Systolic Blood Pressure,STANDING,177,mmHg,NA,NA,9,WEEK 12,2014-09-25,817
CDISCPILOT01,VS,01-701-1034,107,SYSBP,Systolic Blood Pressure,SUPINE,154,mmHg,NA,NA,10,WEEK 16,2014-10-21,815
CDISCPILOT01,VS,01-701-1034,108,SYSBP,Systolic Blood Pressure,STANDING,183,mmHg,NA,NA,10,WEEK 16,2014-10-21,816
CDISCPILOT01,VS,01-701-1034,109,SYSBP,Systolic Blood Pressure,STANDING,186,mmHg,NA,NA,10,WEEK 16,2014-10-21,817
CDISCPILOT01,VS,01-701-1034,110,SYSBP,Systolic Blood Pressure,SUPINE,167,mmHg,NA,NA,11,WEEK 20,2014-11-18,815
CDISCPILOT01,VS,01-701-1034,111,SYSBP,Systolic Blood Pressure,STANDING,181,mmHg,NA,NA,11,WEEK 20,2014-11-18,816
CDISCPILOT01,VS,01-701-1034,112,SYSBP,Systolic Blood Pressure,STANDING,185,mmHg,NA,NA,11,WEEK 20,2014-11-18,817
CDISCPILOT01,VS,01-701-1034,113,SYSBP,Systolic Blood Pressure,SUPINE,178,mmHg,NA,NA,12,WEEK 24,2014-12-17,815
CDISCPILOT01,VS,01-701-1034,114,SYSBP,Systolic Blood Pressure,STANDING,198,mmHg,NA,NA,12,WEEK 24,2014-12-17,816
CDISCPILOT01,VS,01-701-1034,115,SYSBP,Systolic Blood Pressure,STANDING,164,mmHg,NA,NA,12,WEEK 24,2014-12-17,817
CDISCPILOT01,VS,01-701-1034,116,SYSBP,Systolic Blood Pressure,SUPINE,154,mmHg,NA,NA,13,WEEK 26,2014-12-30,815
CDISCPILOT01,VS,01-701-1034,117,SYSBP,Systolic Blood Pressure,STANDING,150,mmHg,NA,NA,13,WEEK 26,2014-12-30,816
CDISCPILOT01,VS,01-701-1034,118,SYSBP,Systolic Blood Pressure,STANDING,179,mmHg,NA,NA,13,WEEK 26,2014-12-30,817
CDISCPILOT01,VS,01-701-1034,119,TEMP,Temperature,NA,97.2,F,NA,NA,1,SCREENING 1,2014-06-24,NA
CDISCPILOT01,VS,01-701-1034,120,TEMP,Temperature,NA,97.7,F,NA,NA,2,SCREENING 2,2014-06-29,NA
CDISCPILOT01,VS,01-701-1034,121,TEMP,Temperature,NA,98.5,F,NA,Y,3,BASELINE,2014-07-01,NA
CDISCPILOT01,VS,01-701-1034,122,TEMP,Temperature,NA,NA,F,NA,NA,4,WEEK 2,2014-07-15,NA
CDISCPILOT01,VS,01-701-1034,123,TEMP,Temperature,NA,97.9,F,NA,NA,5,WEEK 4,2014-07-29,NA
CDISCPILOT01,VS,01-701-1034,124,TEMP,Temperature,NA,98.3,F,NA,NA,6,AMBUL ECG REMOVAL,2014-07-31,NA
CDISCPILOT01,VS,01-701-1034,125,TEMP,Temperature,NA,98.7,F,NA,NA,7,WEEK 6,2014-08-11,NA
CDISCPILOT01,VS,01-701-1034,126,TEMP,Temperature,NA,NA,F,NA,NA,8,WEEK 8,2014-08-26,NA
CDISCPILOT01,VS,01-701-1034,127,TEMP,Temperature,NA,98.7,F,NA,NA,9,WEEK 12,2014-09-25,NA
CDISCPILOT01,VS,01-701-1034,128,TEMP,Temperature,NA,NA,F,NA,NA,10,WEEK 16,2014-10-21,NA
CDISCPILOT01,VS,01-701-1034,129,TEMP,Temperature,NA,98.4,F,NA,NA,11,WEEK 20,2014-11-18,NA
CDISCPILOT01,VS,01-701-1034,130,TEMP,Temperature,NA,98.1,F,NA,NA,12,WEEK 24,2014-12-17,NA
CDISCPILOT01,VS,01-701-1034,131,TEMP,Temperature,NA,97.8,F,NA,NA,13,WEEK 26,2014-12-30,NA
CDISCPILOT01,VS,01-701-1034,132,WEIGHT,Weight,NA,140.0,LB,NA,NA,1,SCREENING 1,2014-06-24,NA
CDISCPILOT01,VS,01-701-1034,133,WEIGHT,Weight,NA,NA,LB,NA,Y,3,BASELINE,2014-07-01,NA
CDISCPILOT01,VS,01-701-1034,134,WEIGHT,Weight,NA,138.0,LB,NA,NA,4,WEEK 2,2014-07-15,NA
CDISCPILOT01,VS,01-701-1034,135,WEIGHT,Weight,NA,NA,LB,NA,NA,5,WEEK 4,2014-07-29,NA
CDISCPILOT01,VS,01-701-1034,136,WEIGHT,Weight,NA,141.0,LB,NA,NA,7,WEEK 6,2014-08-11,NA
CDISCPILOT01,VS,01-701-1034,137,WEIGHT,Weight,NA,139.0,LB,NA,NA,8,WEEK 8,2014-08-26,NA
CDISCPILOT01,VS,01-701-1034,138,WEIGHT,Weight,NA,139.0,LB,NA,NA,9,WEEK 12,2014-09-25,NA
CDISCPILOT01,VS,01-701-1034,139,WEIGHT,Weight,NA,142.0,LB,NA,NA,10,WEEK 16,2014-10-21,NA
CDISCPILOT01,VS,01-701-1034,140,WEIGHT,Weight,NA,143.0,LB,NA,NA,11,WEEK 20,2014-11-18,NA
CDISCPILOT01,VS,01-701-1034,141,WEIGHT,Weight,NA,144.0,LB,NA,NA,12,WEEK 24,2014-12-17,NA
CDISCPILOT01,VS,01-701-1034,142,WEIGHT,Weight,NA,141.0,LB,NA,NA,13,WEEK 26,2014-12-30,NA
CDISCPILOT01,VS,01-701-1047,1,DIABP,Diastolic Blood Pressure,SUPINE,68,mmHg,NA,NA,1,SCREENING 1,2013-01-22,815
CDISCPILOT01,VS,01-701-1047,2,DIABP,Diastolic Blood Pressure,STANDING,71,mmHg,NA,NA,1,SCREENING 1,2013-01-22,816
CDISCPILOT01,VS,01-701-1047,3,DIABP,Diastolic Blood Pressure,STANDING,83,mmHg,NA,NA,1,SCREENING 1,2013-01-22,817
CDISCPILOT01,VS,01-701-1047,4,DIABP,Diastolic Blood Pressure,SUPINE,65,mmHg,NA,NA,2,SCREENING 2,2013-02-10,815
CDISCPILOT01,VS,01-701-1047,5,DIABP,Diastolic Blood Pressure,STANDING,86,mmHg,NA,NA,2,SCREENING 2,2013-02-10,816
CDISCPILOT01,VS,01-701-1047,6,DIABP,Diastolic Blood Pressure,STANDING,71,mmHg,NA,NA,2,SCREENING 2,2013-02-10,817
CDISCPILOT01,VS,01-701-1047,7,DIABP,Diastolic Blood Pressure,SUPINE,61,mmHg,NA,Y,3,BASELINE,2013-02-12,815
CDISCPILOT01,VS,01-701-1047,8,DIABP,Diastolic Blood Pressure,STANDING,68,mmHg,NA,Y,3,BASELINE,2013-02-12,816
CDISCPILOT01,VS,01-701-1047,9,DIABP,Diastolic Blood Pressure,STANDING,78,mmHg,NA,Y,3,BASELINE,2013-02-12,817
CDISCPILOT01,VS,01-701-1047,10,DIABP,Diastolic Blood Pressure,SUPINE,NA,mmHg,NA,NA,3.5,AMBUL ECG PLACEMENT,2013-02-24,815
CDISCPILOT01,VS,01-701-1047,11,DIABP,Diastolic Blood Pressure,STANDING,56,mmHg,NA,NA,3.5,AMBUL ECG PLACEMENT,2013-02-24,816
CDISCPILOT01,VS,01-701-1047,12,DIABP,Diastolic Blood Pressure,STANDING,73,mmHg,NA,NA,3.5,AMBUL ECG PLACEMENT,2013-02-24,817
CDISCPILOT01,VS,01-701-1047,13,DIABP,Diastolic Blood Pressure,SUPINE,72,mmHg,NA,NA,4,WEEK 2,2013-02-25,815
CDISCPILOT01,VS,01-701-1047,14,DIABP,Diastolic Blood Pressure,STANDING,84,mmHg,NA,NA,4,WEEK 2,2013-02-25,816
CDISCPILOT01,VS,01-701-1047,15,DIABP,Diastolic Blood Pressure,STANDING,73,mmHg,NA,NA,4,WEEK 2,2013-02-25,817
CDISCPILOT01,VS,01-701-1047,16,DIABP,Diastolic Blood Pressure,SUPINE,72,mmHg,NA,NA,5,WEEK 4,2013-03-10,815
CDISCPILOT01,VS,01-701-1047,17,DIABP,Diastolic Blood Pressure,STANDING,NA,mmHg,NA,NA,5,WEEK 4,2013-03-10,816
CDISCPILOT01,VS,01-701-1047,18,DIABP,Diastolic Blood Pressure,STANDING,78,mmHg,NA,NA,5,WEEK 4,2013-03-10,817
CDISCPILOT01,VS,01-701-1047,19,DIABP,Diastolic Blood Pressure,SUPINE,71,mmHg,NA,NA,6,AMBUL ECG REMOVAL,2013-03-29,815
CDISCPILOT01,VS,01-701-1047,20,DIABP,Diastolic Blood Pressure,STANDING,63,mmHg,NA,NA,6,AMBUL ECG REMOVAL,2013-03-29,816
CDISCPILOT01,VS,01-701-1047,21,DIABP,Diastolic Blood Pressure,STANDING,57,mmHg,NA,NA,6,AMBUL ECG REMOVAL,2013-03-29,817
CDISCPILOT01,VS,01-701-1047,22,DIABP,Diastolic Blood Pressure,SUPINE,76,mmHg,NA,NA,201,RETRIEVAL,2013-07-28,815
CDISCPILOT01,VS,01-701-1047,23,DIABP,Diastolic Blood Pressure,STANDING,71,mmHg,NA,NA,201,RETRIEVAL,2013-07-28,816
CDISCPILOT01,VS,01-701-1047,24,DIABP,Diastolic Blood Pressure,STANDING,65,mmHg,NA,NA,201,RETRIEVAL,2013-07-28,817
CDISCPILOT01,VS,01-701-1047,25,HEIGHT,Height,NA,58.5,IN,NA,NA,1,SCREENING 1,2013-01-22,NA
CDISCPILOT01,VS,01-701-1047,26,PULSE,Pulse Rate,SUPINE,53,BEATS/MIN,NA,NA,1,SCREENING 1,2013-01-22,815
CDISCPILOT01,VS,01-701-1047,27,PULSE,Pulse Rate,STANDING,64,BEATS/MIN,NA,NA,1,SCREENING 1,2013-01-22,816
CDISCPILOT01,VS,01-701-1047,28,PULSE,Pulse Rate,STANDING,61,BEATS/MIN,NA,NA,1,SCREENING 1,2013-01-22,817
CDISCPILOT01,VS,01-701-1047,29,PULSE,Pulse Rate,SUPINE,NA,BEATS/MIN,NA,NA,2,SCREENING 2,2013-02-10,815
CDISCPILOT01,VS,01-701-1047,30,PULSE,Pulse Rate,STANDING,74,BEATS/MIN,NA,NA,2,SCREENING 2,2013-02-10,816
CDISCPILOT01,VS,01-701-1047,31,PULSE,Pulse Rate,STANDING,73,BEATS/MIN,NA,NA,2,SCREENING 2,2013-02-10,817
CDISCPILOT01,VS,01-701-1047,32,PULSE,Pulse Rate,SUPINE,58,BEATS/MIN,NA,Y,3,BASELINE,2013-02-12,815
CDISCPILOT01,VS,01-701-1047,33,PULSE,Pulse Rate,STANDING,67,BEATS/MIN,NA,Y,3,BASELINE,2013-02-12,816
CDISCPILOT01,VS,01-701-1047,34,PULSE,Pulse Rate,STANDING,67,BEATS/MIN,NA,Y,3,BASELINE,2013-02-12,817
CDISCPILOT01,VS,01-701-1047,35,PULSE,Pulse Rate,SUPINE,62,BEATS/MIN,NA,NA,3.5,AMBUL ECG PLACEMENT,2013-02-24,815
CDISCPILOT01,VS,01-701-1047,36,PULSE,Pulse Rate,STANDING,74,BEATS/MIN,NA,NA,3.5,AMBUL ECG PLACEMENT,2013-02-24,816
CDISCPILOT01,VS,01-701-1047,37,PULSE,Pulse Rate,STANDING,72,BEATS/MIN,NA,NA,3.5,AMBUL ECG PLACEMENT,2013-02-24,817
CDISCPILOT01,VS,01-701-1047,38,PULSE,Pulse Rate,SUPINE,66,BEATS/MIN,NA,NA,4,WEEK 2,2013-02-25,815
CDISCPILOT01,VS,01-701-1047,39,PULSE,Pulse Rate,STANDING,75,BEATS/MIN,NA,NA,4,WEEK 2,2013-02-25,816
CDISCPILOT01,VS,01-701-1047,40,PULSE,Pulse Rate,STANDING,78,BEATS/MIN,NA,NA,4,WEEK 2,2013-02-25,817
CDISCPILOT01,VS,01-701-1047,41,PULSE,Pulse Rate,SUPINE,69,BEATS/MIN,NA,NA,5,WEEK 4,2013-03-10,815
CDISCPILOT01,VS,01-701-1047,42,PULSE,Pulse Rate,STANDING,64,BEATS/MIN,NA,NA,5,WEEK 4,2013-03-10,816
CDISCPILOT01,VS,01-701-1047,43,PULSE,Pulse Rate,STANDING,70,BEATS/MIN,NA,NA,5,WEEK 4,2013-03-10,817
CDISCPILOT01,VS,01-701-1047,44,PULSE,Pulse Rate,SUPINE,NA,BEATS/MIN,NA,NA,6,AMBUL ECG REMOVAL,2013-03-29,815
CDISCPILOT01,VS,01-701-1047,45,PULSE,Pulse Rate,STANDING,90,BEATS/MIN,NA,NA,6,AMBUL ECG REMOVAL,2013-03-29,816
CDISCPILOT01,VS,01-701-1047,46,PULSE,Pulse Rate,STANDING,87,BEATS/MIN,NA,NA,6,AMBUL ECG REMOVAL,2013-03-29,817
CDISCPILOT01,VS,01-701-1047,47,PULSE,Pulse Rate,SUPINE,58,BEATS/MIN,NA,NA,201,RETRIEVAL,2013-07-28,815
CDISCPILOT01,VS,01-701-1047,48,PULSE,Pulse Rate,STANDING,72,BEATS/MIN,NA,NA,201,RETRIEVAL,2013-07-28,816
CDISCPILOT01,VS,01-701-1047,49,PULSE,Pulse Rate,STANDING,72,BEATS/MIN,NA,NA,201,RETRIEVAL,2013-07-28,817
CDISCPILOT01,VS,01-701-1047,50,SYSBP,Systolic Blood Pressure,SUPINE,165,mmHg,NA,NA,1,SCREENING 1,2013-01-22,815
CDISCPILOT01,VS,01-701-1047,51,SYSBP,Systolic Blood Pressure,STANDING,NA,mmHg,NA,NA,1,SCREENING 1,2013-01-22,816
CDISCPILOT01,VS,01-701-1047,52,SYSBP,Systolic Blood Pressure,STANDING,161,mmHg,NA,NA,1,SCREENING 1,2013-01-22,817
CDISCPILOT01,VS,01-701-1047,53,SYSBP,Systolic Blood Pressure,SUPINE,159,mmHg,NA,NA,2,SCREENING 2,2013-02-10,815
CDISCPILOT01,VS,01-701-1047,54,SYSBP,Systolic Blood Pressure,STANDING,152,mmHg,NA,NA,2,SCREENING 2,2013-02-10,816
CDISCPILOT01,VS,01-701-1047,55,SYSBP,Systolic Blood Pressure,STANDING,138,mmHg,NA,NA,2,SCREENING 2,2013-02-10,817
CDISCPILOT01,VS,01-701-1047,56,SYSBP,Systolic Blood Pressure,SUPINE,151,mmHg,NA,Y,3,BASELINE,2013-02-12,815
CDISCPILOT01,VS,01-701-1047,57,SYSBP,Systolic Blood Pressure,STANDING,145,mmHg,NA,Y,3,BASELINE,2013-02-12,816
CDISCPILOT01,VS,01-701-1047,58,SYSBP,Systolic Blood Pressure,STANDING,167,mmHg,NA,Y,3,BASELINE,2013-02-12,817
CDISCPILOT01,VS,01-701-1047,59,SYSBP,Systolic Blood Pressure,SUPINE,146,mmHg,NA,NA,3.5,AMBUL ECG PLACEMENT,2013-02-24,815
CDISCPILOT01,VS,01-701-1047,60,SYSBP,Systolic Blood Pressure,STANDING,137,mmHg,NA,NA,3.5,AMBUL ECG PLACEMENT,2013-02-24,816
CDISCPILOT01,VS,01-701-1047,61,SYSBP,Systolic Blood Pressure,STANDING,148,mmHg,NA,NA,3.5,AMBUL ECG PLACEMENT,2013-02-24,817
CDISCPILOT01,VS,01-701-1047,62,SYSBP,Systolic Blood Pressure,SUPINE,145,mmHg,NA,NA,4,WEEK 2,2013-02-25,815
CDISCPILOT01,VS,01-701-1047,63,SYSBP,Systolic Blood Pressure,STANDING,146,mmHg,NA,NA,4,WEEK 2,2013-02-25,816
CDISCPILOT01,VS,01-701-1047,64,SYSBP,Systolic Blood Pressure,STANDING,153,mmHg,NA,NA,4,WEEK 2,2013-02-25,817
CDISCPILOT01,VS,01-701-1047,65,SYSBP,Systolic Blood Pressure,SUPINE,NA,mmHg,NA,NA,5,WEEK 4,2013-03-10,815
CDISCPILOT01,VS,01-701-1047,66,SYSBP,Systolic Blood Pressure,STANDING,145,mmHg,NA,NA,5,WEEK 4,2013-03-10,816
CDISCPILOT01,VS,01-701-1047,67,SYSBP,Systolic Blood Pressure,STANDING,143,mmHg,NA,NA,5,WEEK 4,2013-03-10,817
CDISCPILOT01,VS,01-701-1047,68,SYSBP,Systolic Blood Pressure,SUPINE,123,mmHg,NA,NA,6,AMBUL ECG REMOVAL,2013-03-29,815
CDISCPILOT01,VS,01-701-1047,69,SYSBP,Systolic Blood Pressure,STANDING,115,mmHg,NA,NA,6,AMBUL ECG REMOVAL,2013-03-29,816
CDISCPILOT01,VS,01-701-1047,70,SYSBP,Systolic Blood Pressure,STANDING,123,mmHg,NA,NA,6,AMBUL ECG REMOVAL,2013-03-29,817
CDISCPILOT01,VS,01-701-1047,71,SYSBP,Systolic Blood Pressure,SUPINE,139,mmHg,NA,NA,201,RETRIEVAL,2013-07-28,815
CDISCPILOT01,VS,01-701-1047,72,SYSBP,Systolic Blood Pressure,STANDING,130,mmHg,NA,NA,201,RETRIEVAL,2013-07-28,816
CDISCPILOT01,VS,01-701-1047,73,SYSBP,Systolic Blood Pressure,STANDING,139,mmHg,NA,NA,201,RETRIEVAL,2013-07-28,817
CDISCPILOT01,VS,01-701-1047,74,TEMP,Temperature,NA,97.9,F,NA,NA,2,SCREENING 2,2013-02-10,NA
CDISCPILOT01,VS,01-701-1047,75,TEMP,Temperature,NA,97.5,F,NA,Y,3,BASELINE,2013-02-12,NA
CDISCPILOT01,VS,01-701-1047,76,TEMP,Temperature,NA,97.0,F,NA,NA,3.5,AMBUL ECG PLACEMENT,2013-02-24,NA
CDISCPILOT01,VS,01-701-1047,77,TEMP,Temperature,NA,98.9,F,NA,NA,4,WEEK 2,2013-02-25,NA
CDISCPILOT01,VS,01-701-1047,78,TEMP,Temperature,NA,97.8,F,NA,NA,5,WEEK 4,2013-03-10,NA
CDISCPILOT01,VS,01-701-1047,79,TEMP,Temperature,NA,98.5,F,NA,NA,6,AMBUL ECG REMOVAL,2013-03-29,NA
CDISCPILOT01,VS,01-701-1047,80,TEMP,Temperature,NA,98.4,F,NA,NA,201,RETRIEVAL,2013-07-28,NA
CDISCPILOT01,VS,01-701-1047,81,WEIGHT,Weight,NA,146.0,LB,NA,NA,1,SCREENING 1,2013-01-22,NA
CDISCPILOT01,VS,01-701-1047,82,WEIGHT,Weight,NA,148.0,LB,NA,Y,3,BASELINE,2013-02-12,NA
CDISCPILOT01,VS,01-701-1047,83,WEIGHT,Weight,NA,149.0,LB,NA,NA,4,WEEK 2,2013-02-25,NA
CDISCPILOT01,VS,01-701-1047,84,WEIGHT,Weight,NA,149.0,LB,NA,NA,5,WEEK 4,2013-03-10,NA
CDISCPILOT01,VS,01-701-1047,85,WEIGHT,Weight,NA,148.0,LB,NA,NA,6,AMBUL ECG REMOVAL,2013-03-29,NA
CDISCPILOT01,VS,01-701-1097,1,DIABP,Diastolic Blood Pressure,SUPINE,NA,mmHg,NA,NA,1,SCREENING 1,2013-12-23,815
CDISCPILOT01,VS,01-701-1097,2,DIABP,Diastolic Blood Pressure,STANDING,74,mmHg,NA,NA,1,SCREENING 1,2013-12-23,816
CDISCPILOT01,VS,01-701-1097,3,DIABP,Diastolic Blood Pressure,STANDING,NA,mmHg,NA,NA,1,SCREENING 1,2013-12-23,817
CDISCPILOT01,VS,01-701-1097,4,DIABP,Diastolic Blood Pressure,SUPINE,65,mmHg,NA,NA,2,SCREENING 2,2013-12-30,815
CDISCPILOT01,VS,01-701-1097,5,DIABP,Diastolic Blood Pressure,STANDING,76,mmHg,NA,NA,2,SCREENING 2,2013-12-30,816
CDISCPILOT01,VS,01-701-1097,6,DIABP,Diastolic Blood Pressure,STANDING,80,mmHg,NA,NA,2,SCREENING 2,2013-12-30,817
CDISCPILOT01,VS,01-701-1097,7,DIABP,Diastolic Blood Pressure,SUPINE,72,mmHg,NA,Y,3,BASELINE,2014-01-01,815
CDISCPILOT01,VS,01-701-1097,8,DIABP,Diastolic Blood Pressure,STANDING,78,mmHg,NA,Y,3,BASELINE,2014-01-01,816
CDISCPILOT01,VS,01-701-1097,9,DIABP,Diastolic Blood Pressure,STANDING,80,mmHg,NA,Y,3,BASELINE,2014-01-01,817
CDISCPILOT01,VS,01-701-1097,10,DIABP,Diastolic Blood Pressure,SUPINE,67,mmHg,NA,NA,3.5,AMBUL ECG PLACEMENT,2014-01-14,815
CDISCPILOT01,VS,01-701-1097,11,DIABP,Diastolic Blood Pressure,STANDING,79,mmHg,NA,NA,3.5,AMBUL ECG PLACEMENT,2014-01-14,816
CDISCPILOT01,VS,01-701-1097,12,DIABP,Diastolic Blood Pressure,STANDING,67,mmHg,NA,NA,3.5,AMBUL ECG PLACEMENT,2014-01-14,817
CDISCPILOT01,VS,01-701-1097,13,DIABP,Diastolic Blood Pressure,SUPINE,72,mmHg,NA,NA,4,WEEK 2,2014-01-15,815
CDISCPILOT01,VS,01-701-1097,14,DIABP,Diastolic Blood Pressure,STANDING,82,mmHg,NA,NA,4,WEEK 2,2014-01-15,816
CDISCPILOT01,VS,01-701-1097,15,DIABP,Diastolic Blood Pressure,STANDING,84,mmHg,NA,NA,4,WEEK 2,2014-01-15,817
CDISCPILOT01,VS,01-701-1097,16,DIABP,Diastolic Blood Pressure,SUPINE,71,mmHg,NA,NA,5,WEEK 4,2014-01-29,815
CDISCPILOT01,VS,01-701-1097,17,DIABP,Diastolic Blood Pressure,STANDING,NA,mmHg,NA,NA,5,WEEK 4,2014-01-29,816
CDISCPILOT01,VS,01-701-1097,18,DIABP,Diastolic Blood Pressure,STANDING,68,mmHg,NA,NA,5,WEEK 4,2014-01-29,817
CDISCPILOT01,VS,01-701-1097,19,DIABP,Diastolic Blood Pressure,SUPINE,NA,mmHg,NA,NA,6,AMBUL ECG REMOVAL,2014-02-04,815
CDISCPILOT01,VS,01-701-1097,20,DIABP,Diastolic Blood Pressure,STANDING,70,mmHg,NA,NA,6,AMBUL ECG REMOVAL,2014-02-04,816
CDISCPILOT01,VS,01-701-1097,21,DIABP,Diastolic Blood Pressure,STANDING,70,mmHg,NA,NA,6,AMBUL ECG REMOVAL,2014-02-04,817
CDISCPILOT01,VS,01-701-1097,22,DIABP,Diastolic Blood Pressure,SUPINE,NA,mmHg,NA,NA,7,WEEK 6,2014-02-11,815
CDISCPILOT01,VS,01-701-1097,23,DIABP,Diastolic Blood Pressure,STANDING,70,mmHg,NA,NA,7,WEEK 6,2014-02-11,816
CDISCPILOT01,VS,01-701-1097,24,DIABP,Diastolic Blood Pressure,STANDING,78,mmHg,NA,NA,7,WEEK 6,2014-02-11,817
CDISCPILOT01,VS,01-701-1097,25,DIABP,Diastolic Blood Pressure,SUPINE,75,mmHg,NA,NA,8,WEEK 8,2014-02-26,815
CDISCPILOT01,VS,01-701-1097,26,DIABP,Diastolic Blood Pressure,STANDING,73,mmHg,NA,NA,8,WEEK 8,2014-02-26,816
CDISCPILOT01,VS,01-701-1097,27,DIABP,Diastolic Blood Pressure,STANDING,NA,mmHg,NA,NA,8,WEEK 8,2014-02-26,817
CDISCPILOT01,VS,01-701-1097,28,DIABP,Diastolic Blood Pressure,SUPINE,74,mmHg,NA,NA,9,WEEK 12,2014-03-26,815
CDISCPILOT01,VS,01-701-1097,29,DIABP,Diastolic Blood Pressure,STANDING,70,mmHg,NA,NA,9,WEEK 12,2014-03-26,816
CDISCPILOT01,VS,01-701-1097,30,DIABP,Diastolic Blood Pressure,STANDING,72,mmHg,NA,NA,9,WEEK 12,2014-03-26,817
CDISCPILOT01,VS,01-701-1097,31,DIABP,Diastolic Blood Pressure,SUPINE,70,mmHg,NA,NA,10,WEEK 16,2014-04-23,815
CDISCPILOT01,VS,01-701-1097,32,DIABP,Diastolic Blood Pressure,STANDING,76,mmHg,NA,NA,10,WEEK 16,2014-04-23,816
CDISCPILOT01,VS,01-701-1097,33,DIABP,Diastolic Blood Pressure,STANDING,74,mmHg,NA,NA,10,WEEK 16,2014-04-23,817
CDISCPILOT01,VS,01-701-1097,34,DIABP,Diastolic Blood Pressure,SUPINE,67,mmHg,NA,NA,11,WEEK 20,2014-05-21,815
CDISCPILOT01,VS,01-701-1097,35,DIABP,Diastolic Blood Pressure,STANDING,58,mmHg,NA,NA,11,WEEK 20,2014-05-21,816
CDISCPILOT01,VS,01-701-1097,36,DIABP,Diastolic Blood Pressure,STANDING,61,mmHg,NA,NA,11,WEEK 20,2014-05-21,817
CDISCPILOT01,VS,01-701-1097,37,DIABP,Diastolic Blood Pressure,SUPINE,NA,mmHg,NA,NA,12,WEEK 24,2014-06-18,815
CDISCPILOT01,VS,01-701-1097,38,DIABP,Diastolic Blood Pressure,STANDING,84,mmHg,NA,NA,12,WEEK 24,2014-06-18,816
CDISCPILOT01,VS,01-701-1097,39,DIABP,Diastolic Blood Pressure,STANDING,84,mmHg,NA,NA,12,WEEK 24,2014-06-18,817
CDISCPILOT01,VS,01-701-1097,40,DIABP,Diastolic Blood Pressure,SUPINE,72,mmHg,NA,NA,13,WEEK 26,2014-07-09,815
CDISCPILOT01,VS,01-701-1097,41,DIABP,Diastolic Blood Pressure,STANDING,78,mmHg,NA,NA,13,WEEK 26,2014-07-09,816
CDISCPILOT01,VS,01-701-1097,42,DIABP,Diastolic Blood Pressure,STANDING,77,mmHg,NA,NA,13,WEEK 26,2014-07-09,817
CDISCPILOT01,VS,01-701-1097,43,HEIGHT,Height,NA,066.5,IN,NA,NA,1,SCREENING 1,2013-12-23,NA
CDISCPILOT01,VS,01-701-1097,44,PULSE,Pulse Rate,SUPINE,59,BEATS/MIN,NA,NA,1,SCREENING 1,2013-12-23,815
CDISCPILOT01,VS,01-701-1097,45,PULSE,Pulse Rate,STANDING,66,BEATS/MIN,NA,NA,1,SCREENING 1,2013-12-23,816
CDISCPILOT01,VS,01-701-1097,46,PULSE,Pulse Rate,STANDING,65,BEATS/MIN,NA,NA,1,SCREENING 1,2013-12-23,817
CDISCPILOT01,VS,01-701-1097,47,PULSE,Pulse Rate,SUPINE,60,BEATS/MIN,NA,NA,2,SCREENING 2,2013-12-30,815
CDISCPILOT01,VS,01-701-1097,48,PULSE,Pulse Rate,STANDING,70,BEATS/MIN,NA,NA,2,SCREENING 2,2013-12-30,816
CDISCPILOT01,VS,01-701-1097,49,PULSE,Pulse Rate,STANDING,66,BEATS/MIN,NA,NA,2,SCREENING 2,2013-12-30,817
CDISCPILOT01,VS,01-701-1097,50,PULSE,Pulse Rate,SUPINE,60,BEATS/MIN,NA,Y,3,BASELINE,2014-01-01,815
CDISCPILOT01,VS,01-701-1097,51,PULSE,Pulse Rate,STANDING,68,BEATS/MIN,NA,Y,3,BASELINE,2014-01-01,816
CDISCPILOT01,VS,01-701-1097,52,PULSE,Pulse Rate,STANDING,64,BEATS/MIN,NA,Y,3,BASELINE,2014-01-01,817
CDISCPILOT01,VS,01-701-1097,53,PULSE,Pulse Rate,SUPINE,NA,BEATS/MIN,NA,NA,3.5,AMBUL ECG PLACEMENT,2014-01-14,815
CDISCPILOT01,VS,01-701-1097,54,PULSE,Pulse Rate,STANDING,59,BEATS/MIN,NA,NA,3.5,AMBUL ECG PLACEMENT,2014-01-14,816
CDISCPILOT01,VS,01-701-1097,55,PULSE,Pulse Rate,STANDING,60,BEATS/MIN,NA,NA,3.5,AMBUL ECG PLACEMENT,2014-01-14,817
CDISCPILOT01,VS,01-701-1097,56,PULSE,Pulse Rate,SUPINE,66,BEATS/MIN,NA,NA,4,WEEK 2,2014-01-15,815
CDISCPILOT01,VS,01-701-1097,57,PULSE,Pulse Rate,STANDING,72,BEATS/MIN,NA,NA,4,WEEK 2,2014-01-15,816
CDISCPILOT01,VS,01-701-1097,58,PULSE,Pulse Rate,STANDING,68,BEATS/MIN,NA,NA,4,WEEK 2,2014-01-15,817
CDISCPILOT01,VS,01-701-1097,59,PULSE,Pulse Rate,SUPINE,50,BEATS/MIN,NA,NA,5,WEEK 4,2014-01-29,815
CDISCPILOT01,VS,01-701-1097,60,PULSE,Pulse Rate,STANDING,NA,BEATS/MIN,NA,NA,5,WEEK 4,2014-01-29,816
CDISCPILOT01,VS,01-701-1097,61,PULSE,Pulse Rate,STANDING,54,BEATS/MIN,NA,NA,5,WEEK 4,2014-01-29,817
CDISCPILOT01,VS,01-701-1097,62,PULSE,Pulse Rate,SUPINE,62,BEATS/MIN,NA,NA,6,AMBUL ECG REMOVAL,2014-02-04,815
CDISCPILOT01,VS,01-701-1097,63,PULSE,Pulse Rate,STANDING,68,BEATS/MIN,NA,NA,6,AMBUL ECG REMOVAL,2014-02-04,816
CDISCPILOT01,VS,01-701-1097,64,PULSE,Pulse Rate,STANDING,NA,BEATS/MIN,NA,NA,6,AMBUL ECG REMOVAL,2014-02-04,817
CDISCPILOT01,VS,01-701-1097,65,PULSE,Pulse Rate,SUPINE,64,BEATS/MIN,NA,NA,7,WEEK 6,2014-02-11,815
CDISCPILOT01,VS,01-701-1097,66,PULSE,Pulse Rate,STANDING,76,BEATS/MIN,NA,NA,7,WEEK 6,2014-02-11,816
CDISCPILOT01,VS,01-701-1097,67,PULSE,Pulse Rate,STANDING,74,BEATS/MIN,NA,NA,7,WEEK 6,2014-02-11,817
CDISCPILOT01,VS,01-701-1097,68,PULSE,Pulse Rate,SUPINE,54,BEATS/MIN,NA,NA,8,WEEK 8,2014-02-26,815
CDISCPILOT01,VS,01-701-1097,69,PULSE,Pulse Rate,STANDING,62,BEATS/MIN,NA,NA,8,WEEK 8,2014-02-26,816
CDISCPILOT01,VS,01-701-1097,70,PULSE,Pulse Rate,STANDING,61,BEATS/MIN,NA,NA,8,WEEK 8,2014-02-26,817
CDISCPILOT01,VS,01-701-1097,71,PULSE,Pulse Rate,SUPINE,58,BEATS/MIN,NA,NA,9,WEEK 12,2014-03-26,815
CDISCPILOT01,VS,01-701-1097,72,PULSE,Pulse Rate,STANDING,72,BEATS/MIN,NA,NA,9,WEEK 12,2014-03-26,816
CDISCPILOT01,VS,01-701-1097,73,PULSE,Pulse Rate,STANDING,70,BEATS/MIN,NA,NA,9,WEEK 12,2014-03-26,817
CDISCPILOT01,VS,01-701-1097,74,PULSE,Pulse Rate,SUPINE,67,BEATS/MIN,NA,NA,10,WEEK 16,2014-04-23,815
CDISCPILOT01,VS,01-701-1097,75,PULSE,Pulse Rate,STANDING,74,BEATS/MIN,NA,NA,10,WEEK 16,2014-04-23,816
CDISCPILOT01,VS,01-701-1097,76,PULSE,Pulse Rate,STANDING,72,BEATS/MIN,NA,NA,10,WEEK 16,2014-04-23,817
CDISCPILOT01,VS,01-701-1097,77,PULSE,Pulse Rate,SUPINE,61,BEATS/MIN,NA,NA,11,WEEK 20,2014-05-21,815
CDISCPILOT01,VS,01-701-1097,78,PULSE,Pulse Rate,STANDING,70,BEATS/MIN,NA,NA,11,WEEK 20,2014-05-21,816
CDISCPILOT01,VS,01-701-1097,79,PULSE,Pulse Rate,STANDING,67,BEATS/MIN,NA,NA,11,WEEK 20,2014-05-21,817
CDISCPILOT01,VS,01-701-1097,80,PULSE,Pulse Rate,SUPINE,65,BEATS/MIN,NA,NA,12,WEEK 24,2014-06-18,815
CDISCPILOT01,VS,01-701-1097,81,PULSE,Pulse Rate,STANDING,74,BEATS/MIN,NA,NA,12,WEEK 24,2014-06-18,816
CDISCPILOT01,VS,01-701-1097,82,PULSE,Pulse Rate,STANDING,72,BEATS/MIN,NA,NA,12,WEEK 24,2014-06-18,817
CDISCPILOT01,VS,01-701-1097,83,PULSE,Pulse Rate,SUPINE,58,BEATS/MIN,NA,NA,13,WEEK 26,2014-07-09,815
CDISCPILOT01,VS,01-701-1097,84,PULSE,Pulse Rate,STANDING,76,BEATS/MIN,NA,NA,13,WEEK 26,2014-07-09,816
CDISCPILOT01,VS,01-701-1097,85,PULSE,Pulse Rate,STANDING,66,BEATS/MIN,NA,NA,13,WEEK 26,2014-07-09,817
CDISCPILOT01,VS,01-701-1097,86,SYSBP,Systolic Blood Pressure,SUPINE,138,mmHg,NA,NA,1,SCREENING 1,2013-12-23,815
CDISCPILOT01,VS,01-701-1097,87,SYSBP,Systolic Blood Pressure,STANDING,137,mmHg,NA,NA,1,SCREENING 1,2013-12-23,816
CDISCPILOT01,VS,01-701-1097,88,SYSBP,Systolic Blood Pressure,STANDING,139,mmHg,NA,NA,1,SCREENING 1,2013-12-23,817
CDISCPILOT01,VS,01-701-1097,89,SYSBP,Systolic Blood Pressure,SUPINE,131,mmHg,NA,NA,2,SCREENING 2,2013-12-30,815
CDISCPILOT01,VS,01-701-1097,90,SYSBP,Systolic Blood Pressure,STANDING,138,mmHg,NA,NA,2,SCREENING 2,2013-12-30,816
CDISCPILOT01,VS,01-701-1097,91,SYSBP,Systolic Blood Pressure,STANDING,138,mmHg,NA,NA,2,SCREENING 2,2013-12-30,817
CDISCPILOT01,VS,01-701-1097,92,SYSBP,Systolic Blood Pressure,SUPINE,128,mmHg,NA,Y,3,BASELINE,2014-01-01,815
CDISCPILOT01,VS,01-701-1097,93,SYSBP,Systolic Blood Pressure,STANDING,130,mmHg,NA,Y,3,BASELINE,2014-01-01,816
CDISCPILOT01,VS,01-701-1097,94,SYSBP,Systolic Blood Pressure,STANDING,132,mmHg,NA,Y,3,BASELINE,2014-01-01,817
CDISCPILOT01,VS,01-701-1097,95,SYSBP,Systolic Blood Pressure,SUPINE,NA,mmHg,NA,NA,3.5,AMBUL ECG PLACEMENT,2014-01-14,815
CDISCPILOT01,VS,01-701-1097,96,SYSBP,Systolic Blood Pressure,STANDING,144,mmHg,NA,NA,3.5,AMBUL ECG PLACEMENT,2014-01-14,816
CDISCPILOT01,VS,01-701-1097,97,SYSBP,Systolic Blood Pressure,STANDING,130,mmHg,NA,NA,3.5,AMBUL ECG PLACEMENT,2014-01-14,817
CDISCPILOT01,VS,01-701-1097,98,SYSBP,Systolic Blood Pressure,SUPINE,124,mmHg,NA,NA,4,WEEK 2,2014-01-15,815
CDISCPILOT01,VS,01-701-1097,99,SYSBP,Systolic Blood Pressure,STANDING,130,mmHg,NA,NA,4,WEEK 2,2014-01-15,816
CDISCPILOT01,VS,01-701-1097,100,SYSBP,Systolic Blood Pressure,STANDING,132,mmHg,NA,NA,4,WEEK 2,2014-01-15,817
CDISCPILOT01,VS,01-701-1097,101,SYSBP,Systolic Blood Pressure,SUPINE,137,mmHg,NA,NA,5,WEEK 4,2014-01-29,815
CDISCPILOT01,VS,01-701-1097,102,SYSBP,Systolic Blood Pressure,STANDING,NA,mmHg,NA,NA,5,WEEK 4,2014-01-29,816
CDISCPILOT01,VS,01-701-1097,103,SYSBP,Systolic Blood Pressure,STANDING,137,mmHg,NA,NA,5,WEEK 4,2014-01-29,817
CDISCPILOT01,VS,01-701-1097,104,SYSBP,Systolic Blood Pressure,SUPINE,132,mmHg,NA,NA,6,AMBUL ECG REMOVAL,2014-02-04,815
CDISCPILOT01,VS,01-701-1097,105,SYSBP,Systolic Blood Pressure,STANDING,132,mmHg,NA,NA,6,AMBUL ECG REMOVAL,2014-02-04,816
CDISCPILOT01,VS,01-701-1097,106,SYSBP,Systolic Blood Pressure,STANDING,138,mmHg,NA,NA,6,AMBUL ECG REMOVAL,2014-02-04,817
CDISCPILOT01,VS,01-701-1097,107,SYSBP,Systolic Blood Pressure,SUPINE,122,mmHg,NA,NA,7,WEEK 6,2014-02-11,815
CDISCPILOT01,VS,01-701-1097,108,SYSBP,Systolic Blood Pressure,STANDING,124,mmHg,NA,NA,7,WEEK 6,2014-02-11,816
CDISCPILOT01,VS,01-701-1097,109,SYSBP,Systolic Blood Pressure,STANDING,124,mmHg,NA,NA,7,WEEK 6,2014-02-11,817
CDISCPILOT01,VS,01-701-1097,110,SYSBP,Systolic Blood Pressure,SUPINE,136,mmHg,NA,NA,8,WEEK 8,2014-02-26,815
CDISCPILOT01,VS,01-701-1097,111,SYSBP,Systolic Blood Pressure,STANDING,130,mmHg,NA,NA,8,WEEK 8,2014-02-26,816
CDISCPILOT01,VS,01-701-1097,112,SYSBP,Systolic Blood Pressure,STANDING,131,mmHg,NA,NA,8,WEEK 8,2014-02-26,817
CDISCPILOT01,VS,01-701-1097,113,SYSBP,Systolic Blood Pressure,SUPINE,121,mmHg,NA,NA,9,WEEK 12,2014-03-26,815
CDISCPILOT01,VS,01-701-1097,114,SYSBP,Systolic Blood Pressure,STANDING,132,mmHg,NA,NA,9,WEEK 12,2014-03-26,816
CDISCPILOT01,VS,01-701-1097,115,SYSBP,Systolic Blood Pressure,STANDING,139,mmHg,NA,NA,9,WEEK 12,2014-03-26,817
CDISCPILOT01,VS,01-701-1097,116,SYSBP,Systolic Blood Pressure,SUPINE,132,mmHg,NA,NA,10,WEEK 16,2014-04-23,815
CDISCPILOT01,VS,01-701-1097,117,SYSBP,Systolic Blood Pressure,STANDING,138,mmHg,NA,NA,10,WEEK 16,2014-04-23,816
CDISCPILOT01,VS,01-701-1097,118,SYSBP,Systolic Blood Pressure,STANDING,139,mmHg,NA,NA,10,WEEK 16,2014-04-23,817
CDISCPILOT01,VS,01-701-1097,119,SYSBP,Systolic Blood Pressure,SUPINE,121,mmHg,NA,NA,11,WEEK 20,2014-05-21,815
CDISCPILOT01,VS,01-701-1097,120,SYSBP,Systolic Blood Pressure,STANDING,112,mmHg,NA,NA,11,WEEK 20,2014-05-21,816
CDISCPILOT01,VS,01-701-1097,121,SYSBP,Systolic Blood Pressure,STANDING,115,mmHg,NA,NA,11,WEEK 20,2014-05-21,817
CDISCPILOT01,VS,01-701-1097,122,SYSBP,Systolic Blood Pressure,SUPINE,137,mmHg,NA,NA,12,WEEK 24,2014-06-18,815
CDISCPILOT01,VS,01-701-1097,123,SYSBP,Systolic Blood Pressure,STANDING,131,mmHg,NA,NA,12,WEEK 24,2014-06-18,816
CDISCPILOT01,VS,01-701-1097,124,SYSBP,Systolic Blood Pressure,STANDING,130,mmHg,NA,NA,12,WEEK 24,2014-06-18,817
CDISCPILOT01,VS,01-701-1097,125,SYSBP,Systolic Blood Pressure,SUPINE,123,mmHg,NA,NA,13,WEEK 26,2014-07-09,815
CDISCPILOT01,VS,01-701-1097,126,SYSBP,Systolic Blood Pressure,STANDING,132,mmHg,NA,NA,13,WEEK 26,2014-07-09,816
CDISCPILOT01,VS,01-701-1097,127,SYSBP,Systolic Blood Pressure,STANDING,NA,mmHg,NA,NA,13,WEEK 26,2014-07-09,817
CDISCPILOT01,VS,01-701-1097,128,TEMP,Temperature,NA,096.4,F,NA,NA,1,SCREENING 1,2013-12-23,NA
CDISCPILOT01,VS,01-701-1097,129,TEMP,Temperature,NA,098.1,F,NA,NA,2,SCREENING 2,2013-12-30,NA
CDISCPILOT01,VS,01-701-1097,130,TEMP,Temperature,NA,097.6,F,NA,Y,3,BASELINE,2014-01-01,NA
CDISCPILOT01,VS,01-701-1097,131,TEMP,Temperature,NA,097.9,F,NA,NA,3.5,AMBUL ECG PLACEMENT,2014-01-14,NA
CDISCPILOT01,VS,01-701-1097,132,TEMP,Temperature,NA,097.7,F,NA,NA,4,WEEK 2,2014-01-15,NA
CDISCPILOT01,VS,01-701-1097,133,TEMP,Temperature,NA,93.7,F,NA,NA,5,WEEK 4,2014-01-29,NA
CDISCPILOT01,VS,01-701-1097,134,TEMP,Temperature,NA,098.0,F,NA,NA,6,AMBUL ECG REMOVAL,2014-02-04,NA
CDISCPILOT01,VS,01-701-1097,135,TEMP,Temperature,NA,097.6,F,NA,NA,7,WEEK 6,2014-02-11,NA
CDISCPILOT01,VS,01-701-1097,136,TEMP,Temperature,NA,98.3,F,NA,NA,8,WEEK 8,2014-02-26,NA
CDISCPILOT01,VS,01-701-1097,137,TEMP,Temperature,NA,97.5,F,NA,NA,9,WEEK 12,2014-03-26,NA
CDISCPILOT01,VS,01-701-1097,138,TEMP,Temperature,NA,98.1,F,NA,NA,10,WEEK 16,2014-04-23,NA
CDISCPILOT01,VS,01-701-1097,139,TEMP,Temperature,NA,NA,F,NA,NA,11,WEEK 20,2014-05-21,NA
CDISCPILOT01,VS,01-701-1097,140,TEMP,Temperature,NA,98.6,F,NA,NA,12,WEEK 24,2014-06-18,NA
CDISCPILOT01,VS,01-701-1097,141,TEMP,Temperature,NA,97.8,F,NA,NA,13,WEEK 26,2014-07-09,NA
CDISCPILOT01,VS,01-701-1097,142,WEIGHT,Weight,NA,172.0,LB,NA,NA,1,SCREENING 1,2013-12-23,NA
CDISCPILOT01,VS,01-701-1097,143,WEIGHT,Weight,NA,172.0,LB,NA,Y,3,BASELINE,2014-01-01,NA
CDISCPILOT01,VS,01-701-1097,144,WEIGHT,Weight,NA,NA,LB,NA,NA,4,WEEK 2,2014-01-15,NA
CDISCPILOT01,VS,01-701-1097,145,WEIGHT,Weight,NA,175.0,LB,NA,NA,5,WEEK 4,2014-01-29,NA
CDISCPILOT01,VS,01-701-1097,146,WEIGHT,Weight,NA,175.0,LB,NA,NA,7,WEEK 6,2014-02-11,NA
CDISCPILOT01,VS,01-701-1097,147,WEIGHT,Weight,NA,173.0,LB,NA,NA,8,WEEK 8,2014-02-26,NA
CDISCPILOT01,VS,01-701-1097,148,WEIGHT,Weight,NA,176.0,LB,NA,NA,9,WEEK 12,2014-03-26,NA
CDISCPILOT01,VS,01-701-1097,149,WEIGHT,Weight,NA,175.0,LB,NA,NA,10,WEEK 16,2014-04-23,NA
CDISCPILOT01,VS,01-701-1097,150,WEIGHT,Weight,NA,176.0,LB,NA,NA,11,WEEK 20,2014-05-21,NA
CDISCPILOT01,VS,01-701-1097,151,WEIGHT,Weight,NA,177.0,LB,NA,NA,12,WEEK 24,2014-06-18,NA
CDISCPILOT01,VS,01-701-1097,152,WEIGHT,Weight,NA,173.0,LB,NA,NA,13,WEEK 26,2014-07-09,NA
CDISCPILOT01,VS,01-701-1111,1,DIABP,Diastolic Blood Pressure,SUPINE,74,mmHg,NA,NA,1,SCREENING 1,2012-08-25,815
CDISCPILOT01,VS,01-701-1111,2,DIABP,Diastolic Blood Pressure,STANDING,75,mmHg,NA,NA,1,SCREENING 1,2012-08-25,816
CDISCPILOT01,VS,01-701-1111,3,DIABP,Diastolic Blood Pressure,STANDING,65,mmHg,NA,NA,1,SCREENING 1,2012-08-25,817
CDISCPILOT01,VS,01-701-1111,4,DIABP,Diastolic Blood Pressure,SUPINE,63,mmHg,NA,NA,2,SCREENING 2,2012-09-05,815
CDISCPILOT01,VS,01-701-1111,5,DIABP,Diastolic Blood Pressure,STANDING,74,mmHg,NA,NA,2,SCREENING 2,2012-09-05,816
CDISCPILOT01,VS,01-701-1111,6,DIABP,Diastolic Blood Pressure,STANDING,74,mmHg,NA,NA,2,SCREENING 2,2012-09-05,817
CDISCPILOT01,VS,01-701-1111,7,DIABP,Diastolic Blood Pressure,SUPINE,66,mmHg,NA,Y,3,BASELINE,2012-09-07,815
CDISCPILOT01,VS,01-701-1111,8,DIABP,Diastolic Blood Pressure,STANDING,NA,mmHg,NA,Y,3,BASELINE,2012-09-07,816
CDISCPILOT01,VS,01-701-1111,9,DIABP,Diastolic Blood Pressure,STANDING,NA,mmHg,NA,Y,3,BASELINE,2012-09-07,817
CDISCPILOT01,VS,01-701-1111,10,DIABP,Diastolic Blood Pressure,SUPINE,60,mmHg,NA,NA,4,WEEK 2,2012-09-17,815
CDISCPILOT01,VS,01-701-1111,11,DIABP,Diastolic Blood Pressure,STANDING,66,mmHg,NA,NA,4,WEEK 2,2012-09-17,816
CDISCPILOT01,VS,01-701-1111,12,DIABP,Diastolic Blood Pressure,STANDING,60,mmHg,NA,NA,4,WEEK 2,2012-09-17,817
CDISCPILOT01,VS,01-701-1111,13,DIABP,Diastolic Blood Pressure,SUPINE,64,mmHg,NA,NA,201,RETRIEVAL,2013-02-22,815
CDISCPILOT01,VS,01-701-1111,14,DIABP,Diastolic Blood Pressure,STANDING,72,mmHg,NA,NA,201,RETRIEVAL,2013-02-22,816
CDISCPILOT01,VS,01-701-1111,15,DIABP,Diastolic Blood Pressure,STANDING,64,mmHg,NA,NA,201,RETRIEVAL,2013-02-22,817
CDISCPILOT01,VS,01-701-1111,16,HEIGHT,Height,NA,062.3,IN,NA,NA,1,SCREENING 1,2012-08-25,NA
CDISCPILOT01,VS,01-701-1111,17,PULSE,Pulse Rate,SUPINE,80,BEATS/MIN,NA,NA,1,SCREENING 1,2012-08-25,815
CDISCPILOT01,VS,01-701-1111,18,PULSE,Pulse Rate,STANDING,85,BEATS/MIN,NA,NA,1,SCREENING 1,2012-08-25,816
CDISCPILOT01,VS,01-701-1111,19,PULSE,Pulse Rate,STANDING,84,BEATS/MIN,NA,NA,1,SCREENING 1,2012-08-25,817
CDISCPILOT01,VS,01-701-1111,20,PULSE,Pulse Rate,SUPINE,84,BEATS/MIN,NA,NA,2,SCREENING 2,2012-09-05,815
CDISCPILOT01,VS,01-701-1111,21,PULSE,Pulse Rate,STANDING,94,BEATS/MIN,NA,NA,2,SCREENING 2,2012-09-05,816
CDISCPILOT01,VS,01-701-1111,22,PULSE,Pulse Rate,STANDING,89,BEATS/MIN,NA,NA,2,SCREENING 2,2012-09-05,817
CDISCPILOT01,VS,01-701-1111,23,PULSE,Pulse Rate,SUPINE,78,BEATS/MIN,NA,Y,3,BASELINE,2012-09-07,815
CDISCPILOT01,VS,01-701-1111,24,PULSE,Pulse Rate,STANDING,NA,BEATS/MIN,NA,Y,3,BASELINE,2012-09-07,816
CDISCPILOT01,VS,01-701-1111,25,PULSE,Pulse Rate,STANDING,85,BEATS/MIN,NA,Y,3,BASELINE,2012-09-07,817
CDISCPILOT01,VS,01-701-1111,26,PULSE,Pulse Rate,SUPINE,85,BEATS/MIN,NA,NA,4,WEEK 2,2012-09-17,815
CDISCPILOT01,VS,01-701-1111,27,PULSE,Pulse Rate,STANDING,89,BEATS/MIN,NA,NA,4,WEEK 2,2012-09-17,816
CDISCPILOT01,VS,01-701-1111,28,PULSE,Pulse Rate,STANDING,84,BEATS/MIN,NA,NA,4,WEEK 2,2012-09-17,817
CDISCPILOT01,VS,01-701-1111,29,PULSE,Pulse Rate,SUPINE,66,BEATS/MIN,NA,NA,201,RETRIEVAL,2013-02-22,815
CDISCPILOT01,VS,01-701-1111,30,PULSE,Pulse Rate,STANDING,79,BEATS/MIN,NA,NA,201,RETRIEVAL,2013-02-22,816
CDISCPILOT01,VS,01-701-1111,31,PULSE,Pulse Rate,STANDING,74,BEATS/MIN,NA,NA,201,RETRIEVAL,2013-02-22,817
CDISCPILOT01,VS,01-701-1111,32,SYSBP,Systolic Blood Pressure,SUPINE,137,mmHg,NA,NA,1,SCREENING 1,2012-08-25,815
CDISCPILOT01,VS,01-701-1111,33,SYSBP,Systolic Blood Pressure,STANDING,129,mmHg,NA,NA,1,SCREENING 1,2012-08-25,816
CDISCPILOT01,VS,01-701-1111,34,SYSBP,Systolic Blood Pressure,STANDING,122,mmHg,NA,NA,1,SCREENING 1,2012-08-25,817
CDISCPILOT01,VS,01-701-1111,35,SYSBP,Systolic Blood Pressure,SUPINE,137,mmHg,NA,NA,2,SCREENING 2,2012-09-05,815
CDISCPILOT01,VS,01-701-1111,36,SYSBP,Systolic Blood Pressure,STANDING,121,mmHg,NA,NA,2,SCREENING 2,2012-09-05,816
CDISCPILOT01,VS,01-701-1111,37,SYSBP,Systolic Blood Pressure,STANDING,129,mmHg,NA,NA,2,SCREENING 2,2012-09-05,817
CDISCPILOT01,VS,01-701-1111,38,SYSBP,Systolic Blood Pressure,SUPINE,129,mmHg,NA,Y,3,BASELINE,2012-09-07,815
CDISCPILOT01,VS,01-701-1111,39,SYSBP,Systolic Blood Pressure,STANDING,136,mmHg,NA,Y,3,BASELINE,2012-09-07,816
CDISCPILOT01,VS,01-701-1111,40,SYSBP,Systolic Blood Pressure,STANDING,135,mmHg,NA,Y,3,BASELINE,2012-09-07,817
CDISCPILOT01,VS,01-701-1111,41,SYSBP,Systolic Blood Pressure,SUPINE,125,mmHg,NA,NA,4,WEEK 2,2012-09-17,815
CDISCPILOT01,VS,01-701-1111,42,SYSBP,Systolic Blood Pressure,STANDING,112,mmHg,NA,NA,4,WEEK 2,2012-09-17,816
CDISCPILOT01,VS,01-701-1111,43,SYSBP,Systolic Blood Pressure,STANDING,110,mmHg,NA,NA,4,WEEK 2,2012-09-17,817
CDISCPILOT01,VS,01-701-1111,44,SYSBP,Systolic Blood Pressure,SUPINE,138,mmHg,NA,NA,201,RETRIEVAL,2013-02-22,815
CDISCPILOT01,VS,01-701-1111,45,SYSBP,Systolic Blood Pressure,STANDING,130,mmHg,NA,NA,201,RETRIEVAL,2013-02-22,816
CDISCPILOT01,VS,01-701-1111,46,SYSBP,Systolic Blood Pressure,STANDING,130,mmHg,NA,NA,201,RETRIEVAL,2013-02-22,817
CDISCPILOT01,VS,01-701-1111,47,TEMP,Temperature,NA,98.6,F,NA,NA,1,SCREENING 1,2012-08-25,NA
CDISCPILOT01,VS,01-701-1111,48,TEMP,Temperature,NA,97.9,F,NA,NA,2,SCREENING 2,2012-09-05,NA
CDISCPILOT01,VS,01-701-1111,49,TEMP,Temperature,NA,98.1,F,NA,Y,3,BASELINE,2012-09-07,NA
CDISCPILOT01,VS,01-701-1111,50,TEMP,Temperature,NA,098.8,F,NA,NA,4,WEEK 2,2012-09-17,NA
CDISCPILOT01,VS,01-701-1111,51,TEMP,Temperature,NA,97.7,F,NA,NA,201,RETRIEVAL,2013-02-22,NA
CDISCPILOT01,VS,01-701-1111,52,WEIGHT,Weight,NA,133.0,LB,NA,NA,1,SCREENING 1,2012-08-25,NA
CDISCPILOT01,VS,01-701-1111,53,WEIGHT,Weight,NA,132.0,LB,NA,Y,3,BASELINE,2012-09-07,NA
CDISCPILOT01,VS,01-701-1111,54,WEIGHT,Weight,NA,134.0,LB,NA,NA,4,WEEK 2,2012-09-17,NA
CDISCPILOT01,VS,01-701-1115,1,DIABP,Diastolic Blood Pressure,SUPINE,71,mmHg,NA,NA,1,SCREENING 1,2012-11-23,815
CDISCPILOT01,VS,01-701-1115,2,DIABP,Diastolic Blood Pressure,STANDING,68,mmHg,NA,NA,1,SCREENING 1,2012-11-23,816
CDISCPILOT01,VS,01-701-1115,3,DIABP,Diastolic Blood Pressure,STANDING,NA,mmHg,NA,NA,1,SCREENING 1,2012-11-23,817
CDISCPILOT01,VS,01-701-1115,4,DIABP,Diastolic Blood Pressure,SUPINE,71,mmHg,NA,NA,2,SCREENING 2,2012-11-28,815
CDISCPILOT01,VS,01-701-1115,5,DIABP,Diastolic Blood Pressure,STANDING,65,mmHg,NA,NA,2,SCREENING 2,2012-11-28,816
CDISCPILOT01,VS,01-701-1115,6,DIABP,Diastolic Blood Pressure,STANDING,68,mmHg,NA,NA,2,SCREENING 2,2012-11-28,817
CDISCPILOT01,VS,01-701-1115,7,DIABP,Diastolic Blood Pressure,SUPINE,NA,mmHg,NA,Y,3,BASELINE,2012-11-30,815
CDISCPILOT01,VS,01-701-1115,8,DIABP,Diastolic Blood Pressure,STANDING,67,mmHg,NA,Y,3,BASELINE,2012-11-30,816
CDISCPILOT01,VS,01-701-1115,9,DIABP,Diastolic Blood Pressure,STANDING,69,mmHg,NA,Y,3,BASELINE,2012-11-30,817
CDISCPILOT01,VS,01-701-1115,10,DIABP,Diastolic Blood Pressure,SUPINE,78,mmHg,NA,NA,3.5,AMBUL ECG PLACEMENT,2012-12-12,815
CDISCPILOT01,VS,01-701-1115,11,DIABP,Diastolic Blood Pressure,STANDING,70,mmHg,NA,NA,3.5,AMBUL ECG PLACEMENT,2012-12-12,816
CDISCPILOT01,VS,01-701-1115,12,DIABP,Diastolic Blood Pressure,STANDING,72,mmHg,NA,NA,3.5,AMBUL ECG PLACEMENT,2012-12-12,817
CDISCPILOT01,VS,01-701-1115,13,DIABP,Diastolic Blood Pressure,SUPINE,79,mmHg,NA,NA,4,WEEK 2,2012-12-13,815
CDISCPILOT01,VS,01-701-1115,14,DIABP,Diastolic Blood Pressure,STANDING,68,mmHg,NA,NA,4,WEEK 2,2012-12-13,816
CDISCPILOT01,VS,01-701-1115,15,DIABP,Diastolic Blood Pressure,STANDING,69,mmHg,NA,NA,4,WEEK 2,2012-12-13,817
CDISCPILOT01,VS,01-701-1115,16,DIABP,Diastolic Blood Pressure,SUPINE,68,mmHg,NA,NA,5,WEEK 4,2012-12-26,815
CDISCPILOT01,VS,01-701-1115,17,DIABP,Diastolic Blood Pressure,STANDING,53,mmHg,NA,NA,5,WEEK 4,2012-12-26,816
CDISCPILOT01,VS,01-701-1115,18,DIABP,Diastolic Blood Pressure,STANDING,56,mmHg,NA,NA,5,WEEK 4,2012-12-26,817
CDISCPILOT01,VS,01-701-1115,19,DIABP,Diastolic Blood Pressure,SUPINE,69,mmHg,NA,NA,6,AMBUL ECG REMOVAL,2012-12-28,815
CDISCPILOT01,VS,01-701-1115,20,DIABP,Diastolic Blood Pressure,STANDING,61,mmHg,NA,NA,6,AMBUL ECG REMOVAL,2012-12-28,816
CDISCPILOT01,VS,01-701-1115,21,DIABP,Diastolic Blood Pressure,STANDING,50,mmHg,NA,NA,6,AMBUL ECG REMOVAL,2012-12-28,817
CDISCPILOT01,VS,01-701-1115,22,DIABP,Diastolic Blood Pressure,SUPINE,77,mmHg,NA,NA,7,WEEK 6,2013-01-10,815
CDISCPILOT01,VS,01-701-1115,23,DIABP,Diastolic Blood Pressure,STANDING,71,mmHg,NA,NA,7,WEEK 6,2013-01-10,816
CDISCPILOT01,VS,01-701-1115,24,DIABP,Diastolic Blood Pressure,STANDING,69,mmHg,NA,NA,7,WEEK 6,2013-01-10,817
CDISCPILOT01,VS,01-701-1115,25,DIABP,Diastolic Blood Pressure,SUPINE,76,mmHg,NA,NA,8,WEEK 8,2013-01-23,815
CDISCPILOT01,VS,01-701-1115,26,DIABP,Diastolic Blood Pressure,STANDING,52,mmHg,NA,NA,8,WEEK 8,2013-01-23,816
CDISCPILOT01,VS,01-701-1115,27,DIABP,Diastolic Blood Pressure,STANDING,60,mmHg,NA,NA,8,WEEK 8,2013-01-23,817
CDISCPILOT01,VS,01-701-1115,28,DIABP,Diastolic Blood Pressure,SUPINE,68,mmHg,NA,NA,201,RETRIEVAL,2013-05-20,815
CDISCPILOT01,VS,01-701-1115,29,DIABP,Diastolic Blood Pressure,STANDING,72,mmHg,NA,NA,201,RETRIEVAL,2013-05-20,816
CDISCPILOT01,VS,01-701-1115,30,DIABP,Diastolic Blood Pressure,STANDING,68,mmHg,NA,NA,201,RETRIEVAL,2013-05-20,817
CDISCPILOT01,VS,01-701-1115,31,HEIGHT,Height,NA,71.5,IN,NA,NA,1,SCREENING 1,2012-11-23,NA
CDISCPILOT01,VS,01-701-1115,32,PULSE,Pulse Rate,SUPINE,NA,BEATS/MIN,NA,NA,1,SCREENING 1,2012-11-23,815
CDISCPILOT01,VS,01-701-1115,33,PULSE,Pulse Rate,STANDING,63,BEATS/MIN,NA,NA,1,SCREENING 1,2012-11-23,816
CDISCPILOT01,VS,01-701-1115,34,PULSE,Pulse Rate,STANDING,61,BEATS/MIN,NA,NA,1,SCREENING 1,2012-11-23,817
CDISCPILOT01,VS,01-701-1115,35,PULSE,Pulse Rate,SUPINE,50,BEATS/MIN,NA,NA,2,SCREENING 2,2012-11-28,815
CDISCPILOT01,VS,01-701-1115,36,PULSE,Pulse Rate,STANDING,58,BEATS/MIN,NA,NA,2,SCREENING 2,2012-11-28,816
CDISCPILOT01,VS,01-701-1115,37,PULSE,Pulse Rate,STANDING,59,BEATS/MIN,NA,NA,2,SCREENING 2,2012-11-28,817
CDISCPILOT01,VS,01-701-1115,38,PULSE,Pulse Rate,SUPINE,50,BEATS/MIN,NA,Y,3,BASELINE,2012-11-30,815
CDISCPILOT01,VS,01-701-1115,39,PULSE,Pulse Rate,STANDING,62,BEATS/MIN,NA,Y,3,BASELINE,2012-11-30,816
CDISCPILOT01,VS,01-701-1115,40,PULSE,Pulse Rate,STANDING,60,BEATS/MIN,NA,Y,3,BASELINE,2012-11-30,817
CDISCPILOT01,VS,01-701-1115,41,PULSE,Pulse Rate,SUPINE,52,BEATS/MIN,NA,NA,3.5,AMBUL ECG PLACEMENT,2012-12-12,815
CDISCPILOT01,VS,01-701-1115,42,PULSE,Pulse Rate,STANDING,64,BEATS/MIN,NA,NA,3.5,AMBUL ECG PLACEMENT,2012-12-12,816
CDISCPILOT01,VS,01-701-1115,43,PULSE,Pulse Rate,STANDING,65,BEATS/MIN,NA,NA,3.5,AMBUL ECG PLACEMENT,2012-12-12,817
CDISCPILOT01,VS,01-701-1115,44,PULSE,Pulse Rate,SUPINE,53,BEATS/MIN,NA,NA,4,WEEK 2,2012-12-13,815
CDISCPILOT01,VS,01-701-1115,45,PULSE,Pulse Rate,STANDING,70,BEATS/MIN,NA,NA,4,WEEK 2,2012-12-13,816
CDISCPILOT01,VS,01-701-1115,46,PULSE,Pulse Rate,STANDING,NA,BEATS/MIN,NA,NA,4,WEEK 2,2012-12-13,817
CDISCPILOT01,VS,01-701-1115,47,PULSE,Pulse Rate,SUPINE,51,BEATS/MIN,NA,NA,5,WEEK 4,2012-12-26,815
CDISCPILOT01,VS,01-701-1115,48,PULSE,Pulse Rate,STANDING,57,BEATS/MIN,NA,NA,5,WEEK 4,2012-12-26,816
CDISCPILOT01,VS,01-701-1115,49,PULSE,Pulse Rate,STANDING,64,BEATS/MIN,NA,NA,5,WEEK 4,2012-12-26,817
CDISCPILOT01,VS,01-701-1115,50,PULSE,Pulse Rate,SUPINE,NA,BEATS/MIN,NA,NA,6,AMBUL ECG REMOVAL,2012-12-28,815
CDISCPILOT01,VS,01-701-1115,51,PULSE,Pulse Rate,STANDING,63,BEATS/MIN,NA,NA,6,AMBUL ECG REMOVAL,2012-12-28,816
CDISCPILOT01,VS,01-701-1115,52,PULSE,Pulse Rate,STANDING,60,BEATS/MIN,NA,NA,6,AMBUL ECG REMOVAL,2012-12-28,817
CDISCPILOT01,VS,01-701-1115,53,PULSE,Pulse Rate,SUPINE,52,BEATS/MIN,NA,NA,7,WEEK 6,2013-01-10,815
CDISCPILOT01,VS,01-701-1115,54,PULSE,Pulse Rate,STANDING,62,BEATS/MIN,NA,NA,7,WEEK 6,2013-01-10,816
CDISCPILOT01,VS,01-701-1115,55,PULSE,Pulse Rate,STANDING,62,BEATS/MIN,NA,NA,7,WEEK 6,2013-01-10,817
CDISCPILOT01,VS,01-701-1115,56,PULSE,Pulse Rate,SUPINE,50,BEATS/MIN,NA,NA,8,WEEK 8,2013-01-23,815
CDISCPILOT01,VS,01-701-1115,57,PULSE,Pulse Rate,STANDING,52,BEATS/MIN,NA,NA,8,WEEK 8,2013-01-23,816
CDISCPILOT01,VS,01-701-1115,58,PULSE,Pulse Rate,STANDING,54,BEATS/MIN,NA,NA,8,WEEK 8,2013-01-23,817
CDISCPILOT01,VS,01-701-1115,59,PULSE,Pulse Rate,SUPINE,79,BEATS/MIN,NA,NA,201,RETRIEVAL,2013-05-20,815
CDISCPILOT01,VS,01-701-1115,60,PULSE,Pulse Rate,STANDING,98,BEATS/MIN,NA,NA,201,RETRIEVAL,2013-05-20,816
CDISCPILOT01,VS,01-701-1115,61,PULSE,Pulse Rate,STANDING,NA,BEATS/MIN,NA,NA,201,RETRIEVAL,2013-05-20,817
CDISCPILOT01,VS,01-701-1115,62,SYSBP,Systolic Blood Pressure,SUPINE,137,mmHg,NA,NA,1,SCREENING 1,2012-11-23,815
CDISCPILOT01,VS,01-701-1115,63,SYSBP,Systolic Blood Pressure,STANDING,130,mmHg,NA,NA,1,SCREENING 1,2012-11-23,816
CDISCPILOT01,VS,01-701-1115,64,SYSBP,Systolic Blood Pressure,STANDING,131,mmHg,NA,NA,1,SCREENING 1,2012-11-23,817
CDISCPILOT01,VS,01-701-1115,65,SYSBP,Systolic Blood Pressure,SUPINE,137,mmHg,NA,NA,2,SCREENING 2,2012-11-28,815
CDISCPILOT01,VS,01-701-1115,66,SYSBP,Systolic Blood Pressure,STANDING,NA,mmHg,NA,NA,2,SCREENING 2,2012-11-28,816
CDISCPILOT01,VS,01-701-1115,67,SYSBP,Systolic Blood Pressure,STANDING,115,mmHg,NA,NA,2,SCREENING 2,2012-11-28,817
CDISCPILOT01,VS,01-701-1115,68,SYSBP,Systolic Blood Pressure,SUPINE,130,mmHg,NA,Y,3,BASELINE,2012-11-30,815
CDISCPILOT01,VS,01-701-1115,69,SYSBP,Systolic Blood Pressure,STANDING,106,mmHg,NA,Y,3,BASELINE,2012-11-30,816
CDISCPILOT01,VS,01-701-1115,70,SYSBP,Systolic Blood Pressure,STANDING,110,mmHg,NA,Y,3,BASELINE,2012-11-30,817
CDISCPILOT01,VS,01-701-1115,71,SYSBP,Systolic Blood Pressure,SUPINE,144,mmHg,NA,NA,3.5,AMBUL ECG PLACEMENT,2012-12-12,815
CDISCPILOT01,VS,01-701-1115,72,SYSBP,Systolic Blood Pressure,STANDING,120,mmHg,NA,NA,3.5,AMBUL ECG PLACEMENT,2012-12-12,816
CDISCPILOT01,VS,01-701-1115,73,SYSBP,Systolic Blood Pressure,STANDING,NA,mmHg,NA,NA,3.5,AMBUL ECG PLACEMENT,2012-12-12,817
CDISCPILOT01,VS,01-701-1115,74,SYSBP,Systolic Blood Pressure,SUPINE,122,mmHg,NA,NA,4,WEEK 2,2012-12-13,815
CDISCPILOT01,VS,01-701-1115,75,SYSBP,Systolic Blood Pressure,STANDING,119,mmHg,NA,NA,4,WEEK 2,2012-12-13,816
CDISCPILOT01,VS,01-701-1115,76,SYSBP,Systolic Blood Pressure,STANDING,100,mmHg,NA,NA,4,WEEK 2,2012-12-13,817
CDISCPILOT01,VS,01-701-1115,77,SYSBP,Systolic Blood Pressure,SUPINE,115,mmHg,NA,NA,5,WEEK 4,2012-12-26,815
CDISCPILOT01,VS,01-701-1115,78,SYSBP,Systolic Blood Pressure,STANDING,NA,mmHg,NA,NA,5,WEEK 4,2012-12-26,816
CDISCPILOT01,VS,01-701-1115,79,SYSBP,Systolic Blood Pressure,STANDING,95,mmHg,NA,NA,5,WEEK 4,2012-12-26,817
CDISCPILOT01,VS,01-701-1115,80,SYSBP,Systolic Blood Pressure,SUPINE,122,mmHg,NA,NA,6,AMBUL ECG REMOVAL,2012-12-28,815
CDISCPILOT01,VS,01-701-1115,81,SYSBP,Systolic Blood Pressure,STANDING,96,mmHg,NA,NA,6,AMBUL ECG REMOVAL,2012-12-28,816
CDISCPILOT01,VS,01-701-1115,82,SYSBP,Systolic Blood Pressure,STANDING,99,mmHg,NA,NA,6,AMBUL ECG REMOVAL,2012-12-28,817
CDISCPILOT01,VS,01-701-1115,83,SYSBP,Systolic Blood Pressure,SUPINE,131,mmHg,NA,NA,7,WEEK 6,2013-01-10,815
CDISCPILOT01,VS,01-701-1115,84,SYSBP,Systolic Blood Pressure,STANDING,107,mmHg,NA,NA,7,WEEK 6,2013-01-10,816
CDISCPILOT01,VS,01-701-1115,85,SYSBP,Systolic Blood Pressure,STANDING,104,mmHg,NA,NA,7,WEEK 6,2013-01-10,817
CDISCPILOT01,VS,01-701-1115,86,SYSBP,Systolic Blood Pressure,SUPINE,123,mmHg,NA,NA,8,WEEK 8,2013-01-23,815
CDISCPILOT01,VS,01-701-1115,87,SYSBP,Systolic Blood Pressure,STANDING,NA,mmHg,NA,NA,8,WEEK 8,2013-01-23,816
CDISCPILOT01,VS,01-701-1115,88,SYSBP,Systolic Blood Pressure,STANDING,98,mmHg,NA,NA,8,WEEK 8,2013-01-23,817
CDISCPILOT01,VS,01-701-1115,89,SYSBP,Systolic Blood Pressure,SUPINE,99,mmHg,NA,NA,201,RETRIEVAL,2013-05-20,815
CDISCPILOT01,VS,01-701-1115,90,SYSBP,Systolic Blood Pressure,STANDING,99,mmHg,NA,NA,201,RETRIEVAL,2013-05-20,816
CDISCPILOT01,VS,01-701-1115,91,SYSBP,Systolic Blood Pressure,STANDING,99,mmHg,NA,NA,201,RETRIEVAL,2013-05-20,817
CDISCPILOT01,VS,01-701-1115,92,TEMP,Temperature,NA,97.4,F,NA,NA,1,SCREENING 1,2012-11-23,NA
CDISCPILOT01,VS,01-701-1115,93,TEMP,Temperature,NA,97.2,F,NA,NA,2,SCREENING 2,2012-11-28,NA
CDISCPILOT01,VS,01-701-1115,94,TEMP,Temperature,NA,98.0,F,NA,Y,3,BASELINE,2012-11-30,NA
CDISCPILOT01,VS,01-701-1115,95,TEMP,Temperature,NA,97.4,F,NA,NA,3.5,AMBUL ECG PLACEMENT,2012-12-12,NA
CDISCPILOT01,VS,01-701-1115,96,TEMP,Temperature,NA,98.0,F,NA,NA,4,WEEK 2,2012-12-13,NA
CDISCPILOT01,VS,01-701-1115,97,TEMP,Temperature,NA,97.7,F,NA,NA,5,WEEK 4,2012-12-26,NA
CDISCPILOT01,VS,01-701-1115,98,TEMP,Temperature,NA,97.3,F,NA,NA,6,AMBUL ECG REMOVAL,2012-12-28,NA
CDISCPILOT01,VS,01-701-1115,99,TEMP,Temperature,NA,97.6,F,NA,NA,7,WEEK 6,2013-01-10,NA
CDISCPILOT01,VS,01-701-1115,100,TEMP,Temperature,NA,97.6,F,NA,NA,8,WEEK 8,2013-01-23,NA
CDISCPILOT01,VS,01-701-1115,101,TEMP,Temperature,NA,97.4,F,NA,NA,201,RETRIEVAL,2013-05-20,NA
CDISCPILOT01,VS,01-701-1115,102,WEIGHT,Weight,NA,173.5,LB,NA,NA,1,SCREENING 1,2012-11-23,NA
CDISCPILOT01,VS,01-701-1115,103,WEIGHT,Weight,NA,174.0,LB,NA,Y,3,BASELINE,2012-11-30,NA
CDISCPILOT01,VS,01-701-1115,104,WEIGHT,Weight,NA,NA,LB,NA,NA,4,WEEK 2,2012-12-13,NA
CDISCPILOT01,VS,01-701-1115,105,WEIGHT,Weight,NA,173.0,LB,NA,NA,5,WEEK 4,2012-12-26,NA
CDISCPILOT01,VS,01-701-1115,106,WEIGHT,Weight,NA,173.0,LB,NA,NA,7,WEEK 6,2013-01-10,NA
CDISCPILOT01,VS,01-701-1115,107,WEIGHT,Weight,NA,173.0,LB,NA,NA,8,WEEK 8,2013-01-23,NA
CDISCPILOT01,VS,01-701-1118,1,DIABP,Diastolic Blood Pressure,SUPINE,71,mmHg,NA,NA,1,SCREENING 1,2014-02-27,815
CDISCPILOT01,VS,01-701-1118,2,DIABP,Diastolic Blood Pressure,STANDING,59,mmHg,NA,NA,1,SCREENING 1,2014-02-27,816
CDISCPILOT01,VS,01-701-1118,3,DIABP,Diastolic Blood Pressure,STANDING,64,mmHg,NA,NA,1,SCREENING 1,2014-02-27,817
CDISCPILOT01,VS,01-701-1118,4,DIABP,Diastolic Blood Pressure,SUPINE,84,mmHg,NA,NA,2,SCREENING 2,2014-03-10,815
CDISCPILOT01,VS,01-701-1118,5,DIABP,Diastolic Blood Pressure,STANDING,75,mmHg,NA,NA,2,SCREENING 2,2014-03-10,816
CDISCPILOT01,VS,01-701-1118,6,DIABP,Diastolic Blood Pressure,STANDING,84,mmHg,NA,NA,2,SCREENING 2,2014-03-10,817
CDISCPILOT01,VS,01-701-1118,7,DIABP,Diastolic Blood Pressure,SUPINE,84,mmHg,NA,Y,3,BASELINE,2014-03-12,815
CDISCPILOT01,VS,01-701-1118,8,DIABP,Diastolic Blood Pressure,STANDING,79,mmHg,NA,Y,3,BASELINE,2014-03-12,816
CDISCPILOT01,VS,01-701-1118,9,DIABP,Diastolic Blood Pressure,STANDING,84,mmHg,NA,Y,3,BASELINE,2014-03-12,817
CDISCPILOT01,VS,01-701-1118,10,DIABP,Diastolic Blood Pressure,SUPINE,76,mmHg,NA,NA,3.5,AMBUL ECG PLACEMENT,2014-03-25,815
CDISCPILOT01,VS,01-701-1118,11,DIABP,Diastolic Blood Pressure,STANDING,79,mmHg,NA,NA,3.5,AMBUL ECG PLACEMENT,2014-03-25,816
CDISCPILOT01,VS,01-701-1118,12,DIABP,Diastolic Blood Pressure,STANDING,85,mmHg,NA,NA,3.5,AMBUL ECG PLACEMENT,2014-03-25,817
CDISCPILOT01,VS,01-701-1118,13,DIABP,Diastolic Blood Pressure,SUPINE,NA,mmHg,NA,NA,4,WEEK 2,2014-03-26,815
CDISCPILOT01,VS,01-701-1118,14,DIABP,Diastolic Blood Pressure,STANDING,69,mmHg,NA,NA,4,WEEK 2,2014-03-26,816
CDISCPILOT01,VS,01-701-1118,15,DIABP,Diastolic Blood Pressure,STANDING,73,mmHg,NA,NA,4,WEEK 2,2014-03-26,817
CDISCPILOT01,VS,01-701-1118,16,DIABP,Diastolic Blood Pressure,SUPINE,75,mmHg,NA,NA,5,WEEK 4,2014-04-09,815
CDISCPILOT01,VS,01-701-1118,17,DIABP,Diastolic Blood Pressure,STANDING,68,mmHg,NA,NA,5,WEEK 4,2014-04-09,816
CDISCPILOT01,VS,01-701-1118,18,DIABP,Diastolic Blood Pressure,STANDING,NA,mmHg,NA,NA,5,WEEK 4,2014-04-09,817
CDISCPILOT01,VS,01-701-1118,19,DIABP,Diastolic Blood Pressure,SUPINE,75,mmHg,NA,NA,6,AMBUL ECG REMOVAL,2014-04-11,815
CDISCPILOT01,VS,01-701-1118,20,DIABP,Diastolic Blood Pressure,STANDING,72,mmHg,NA,NA,6,AMBUL ECG REMOVAL,2014-04-11,816
CDISCPILOT01,VS,01-701-1118,21,DIABP,Diastolic Blood Pressure,STANDING,79,mmHg,NA,NA,6,AMBUL ECG REMOVAL,2014-04-11,817
CDISCPILOT01,VS,01-701-1118,22,DIABP,Diastolic Blood Pressure,SUPINE,62,mmHg,NA,NA,7,WEEK 6,2014-04-23,815
CDISCPILOT01,VS,01-701-1118,23,DIABP,Diastolic Blood Pressure,STANDING,68,mmHg,NA,NA,7,WEEK 6,2014-04-23,816
CDISCPILOT01,VS,01-701-1118,24,DIABP,Diastolic Blood Pressure,STANDING,68,mmHg,NA,NA,7,WEEK 6,2014-04-23,817
CDISCPILOT01,VS,01-701-1118,25,DIABP,Diastolic Blood Pressure,SUPINE,67,mmHg,NA,NA,8,WEEK 8,2014-05-08,815
CDISCPILOT01,VS,01-701-1118,26,DIABP,Diastolic Blood Pressure,STANDING,72,mmHg,NA,NA,8,WEEK 8,2014-05-08,816
CDISCPILOT01,VS,01-701-1118,27,DIABP,Diastolic Blood Pressure,STANDING,73,mmHg,NA,NA,8,WEEK 8,2014-05-08,817
CDISCPILOT01,VS,01-701-1118,28,DIABP,Diastolic Blood Pressure,SUPINE,72,mmHg,NA,NA,9,WEEK 12,2014-06-05,815
CDISCPILOT01,VS,01-701-1118,29,DIABP,Diastolic Blood Pressure,STANDING,NA,mmHg,NA,NA,9,WEEK 12,2014-06-05,816
CDISCPILOT01,VS,01-701-1118,30,DIABP,Diastolic Blood Pressure,STANDING,72,mmHg,NA,NA,9,WEEK 12,2014-06-05,817
CDISCPILOT01,VS,01-701-1118,31,DIABP,Diastolic Blood Pressure,SUPINE,72,mmHg,NA,NA,10,WEEK 16,2014-07-02,815
CDISCPILOT01,VS,01-701-1118,32,DIABP,Diastolic Blood Pressure,STANDING,68,mmHg,NA,NA,10,WEEK 16,2014-07-02,816
CDISCPILOT01,VS,01-701-1118,33,DIABP,Diastolic Blood Pressure,STANDING,68,mmHg,NA,NA,10,WEEK 16,2014-07-02,817
CDISCPILOT01,VS,01-701-1118,34,DIABP,Diastolic Blood Pressure,SUPINE,82,mmHg,NA,NA,11,WEEK 20,2014-07-30,815
CDISCPILOT01,VS,01-701-1118,35,DIABP,Diastolic Blood Pressure,STANDING,85,mmHg,NA,NA,11,WEEK 20,2014-07-30,816
CDISCPILOT01,VS,01-701-1118,36,DIABP,Diastolic Blood Pressure,STANDING,NA,mmHg,NA,NA,11,WEEK 20,2014-07-30,817
CDISCPILOT01,VS,01-701-1118,37,DIABP,Diastolic Blood Pressure,SUPINE,76,mmHg,NA,NA,12,WEEK 24,2014-08-27,815
CDISCPILOT01,VS,01-701-1118,38,DIABP,Diastolic Blood Pressure,STANDING,72,mmHg,NA,NA,12,WEEK 24,2014-08-27,816
CDISCPILOT01,VS,01-701-1118,39,DIABP,Diastolic Blood Pressure,STANDING,73,mmHg,NA,NA,12,WEEK 24,2014-08-27,817
CDISCPILOT01,VS,01-701-1118,40,DIABP,Diastolic Blood Pressure,SUPINE,74,mmHg,NA,NA,13,WEEK 26,2014-09-09,815
CDISCPILOT01,VS,01-701-1118,41,DIABP,Diastolic Blood Pressure,STANDING,67,mmHg,NA,NA,13,WEEK 26,2014-09-09,816
CDISCPILOT01,VS,01-701-1118,42,DIABP,Diastolic Blood Pressure,STANDING,72,mmHg,NA,NA,13,WEEK 26,2014-09-09,817
CDISCPILOT01,VS,01-701-1118,43,HEIGHT,Height,NA,NA,IN,NA,NA,1,SCREENING 1,2014-02-27,NA
CDISCPILOT01,VS,01-701-1118,44,PULSE,Pulse Rate,SUPINE,65,BEATS/MIN,NA,NA,1,SCREENING 1,2014-02-27,815
CDISCPILOT01,VS,01-701-1118,45,PULSE,Pulse Rate,STANDING,76,BEATS/MIN,NA,NA,1,SCREENING 1,2014-02-27,816
CDISCPILOT01,VS,01-701-1118,46,PULSE,Pulse Rate,STANDING,76,BEATS/MIN,NA,NA,1,SCREENING 1,2014-02-27,817
CDISCPILOT01,VS,01-701-1118,47,PULSE,Pulse Rate,SUPINE,60,BEATS/MIN,NA,NA,2,SCREENING 2,2014-03-10,815
CDISCPILOT01,VS,01-701-1118,48,PULSE,Pulse Rate,STANDING,68,BEATS/MIN,NA,NA,2,SCREENING 2,2014-03-10,816
CDISCPILOT01,VS,01-701-1118,49,PULSE,Pulse Rate,STANDING,66,BEATS/MIN,NA,NA,2,SCREENING 2,2014-03-10,817
CDISCPILOT01,VS,01-701-1118,50,PULSE,Pulse Rate,SUPINE,62,BEATS/MIN,NA,Y,3,BASELINE,2014-03-12,815
CDISCPILOT01,VS,01-701-1118,51,PULSE,Pulse Rate,STANDING,70,BEATS/MIN,NA,Y,3,BASELINE,2014-03-12,816
CDISCPILOT01,VS,01-701-1118,52,PULSE,Pulse Rate,STANDING,70,BEATS/MIN,NA,Y,3,BASELINE,2014-03-12,817
CDISCPILOT01,VS,01-701-1118,53,PULSE,Pulse Rate,SUPINE,59,BEATS/MIN,NA,NA,3.5,AMBUL ECG PLACEMENT,2014-03-25,815
CDISCPILOT01,VS,01-701-1118,54,PULSE,Pulse Rate,STANDING,72,BEATS/MIN,NA,NA,3.5,AMBUL ECG PLACEMENT,2014-03-25,816
CDISCPILOT01,VS,01-701-1118,55,PULSE,Pulse Rate,STANDING,NA,BEATS/MIN,NA,NA,3.5,AMBUL ECG PLACEMENT,2014-03-25,817
CDISCPILOT01,VS,01-701-1118,56,PULSE,Pulse Rate,SUPINE,62,BEATS/MIN,NA,NA,4,WEEK 2,2014-03-26,815
CDISCPILOT01,VS,01-701-1118,57,PULSE,Pulse Rate,STANDING,73,BEATS/MIN,NA,NA,4,WEEK 2,2014-03-26,816
CDISCPILOT01,VS,01-701-1118,58,PULSE,Pulse Rate,STANDING,68,BEATS/MIN,NA,NA,4,WEEK 2,2014-03-26,817
CDISCPILOT01,VS,01-701-1118,59,PULSE,Pulse Rate,SUPINE,64,BEATS/MIN,NA,NA,5,WEEK 4,2014-04-09,815
CDISCPILOT01,VS,01-701-1118,60,PULSE,Pulse Rate,STANDING,72,BEATS/MIN,NA,NA,5,WEEK 4,2014-04-09,816
CDISCPILOT01,VS,01-701-1118,61,PULSE,Pulse Rate,STANDING,81,BEATS/MIN,NA,NA,5,WEEK 4,2014-04-09,817
CDISCPILOT01,VS,01-701-1118,62,PULSE,Pulse Rate,SUPINE,67,BEATS/MIN,NA,NA,6,AMBUL ECG REMOVAL,2014-04-11,815
CDISCPILOT01,VS,01-701-1118,63,PULSE,Pulse Rate,STANDING,81,BEATS/MIN,NA,NA,6,AMBUL ECG REMOVAL,2014-04-11,816
CDISCPILOT01,VS,01-701-1118,64,PULSE,Pulse Rate,STANDING,84,BEATS/MIN,NA,NA,6,AMBUL ECG REMOVAL,2014-04-11,817
CDISCPILOT01,VS,01-701-1118,65,PULSE,Pulse Rate,SUPINE,74,BEATS/MIN,NA,NA,7,WEEK 6,2014-04-23,815
CDISCPILOT01,VS,01-701-1118,66,PULSE,Pulse Rate,STANDING,77,BEATS/MIN,NA,NA,7,WEEK 6,2014-04-23,816
CDISCPILOT01,VS,01-701-1118,67,PULSE,Pulse Rate,STANDING,79,BEATS/MIN,NA,NA,7,WEEK 6,2014-04-23,817
CDISCPILOT01,VS,01-701-1118,68,PULSE,Pulse Rate,SUPINE,65,BEATS/MIN,NA,NA,8,WEEK 8,2014-05-08,815
CDISCPILOT01,VS,01-701-1118,69,PULSE,Pulse Rate,STANDING,83,BEATS/MIN,NA,NA,8,WEEK 8,2014-05-08,816
CDISCPILOT01,VS,01-701-1118,70,PULSE,Pulse Rate,STANDING,80,BEATS/MIN,NA,NA,8,WEEK 8,2014-05-08,817
CDISCPILOT01,VS,01-701-1118,71,PULSE,Pulse Rate,SUPINE,75,BEATS/MIN,NA,NA,9,WEEK 12,2014-06-05,815
CDISCPILOT01,VS,01-701-1118,72,PULSE,Pulse Rate,STANDING,NA,BEATS/MIN,NA,NA,9,WEEK 12,2014-06-05,816
CDISCPILOT01,VS,01-701-1118,73,PULSE,Pulse Rate,STANDING,89,BEATS/MIN,NA,NA,9,WEEK 12,2014-06-05,817
CDISCPILOT01,VS,01-701-1118,74,PULSE,Pulse Rate,SUPINE,70,BEATS/MIN,NA,NA,10,WEEK 16,2014-07-02,815
CDISCPILOT01,VS,01-701-1118,75,PULSE,Pulse Rate,STANDING,78,BEATS/MIN,NA,NA,10,WEEK 16,2014-07-02,816
CDISCPILOT01,VS,01-701-1118,76,PULSE,Pulse Rate,STANDING,78,BEATS/MIN,NA,NA,10,WEEK 16,2014-07-02,817
CDISCPILOT01,VS,01-701-1118,77,PULSE,Pulse Rate,SUPINE,72,BEATS/MIN,NA,NA,11,WEEK 20,2014-07-30,815
CDISCPILOT01,VS,01-701-1118,78,PULSE,Pulse Rate,STANDING,87,BEATS/MIN,NA,NA,11,WEEK 20,2014-07-30,816
CDISCPILOT01,VS,01-701-1118,79,PULSE,Pulse Rate,STANDING,85,BEATS/MIN,NA,NA,11,WEEK 20,2014-07-30,817
CDISCPILOT01,VS,01-701-1118,80,PULSE,Pulse Rate,SUPINE,61,BEATS/MIN,NA,NA,12,WEEK 24,2014-08-27,815
CDISCPILOT01,VS,01-701-1118,81,PULSE,Pulse Rate,STANDING,74,BEATS/MIN,NA,NA,12,WEEK 24,2014-08-27,816
CDISCPILOT01,VS,01-701-1118,82,PULSE,Pulse Rate,STANDING,NA,BEATS/MIN,NA,NA,12,WEEK 24,2014-08-27,817
CDISCPILOT01,VS,01-701-1118,83,PULSE,Pulse Rate,SUPINE,65,BEATS/MIN,NA,NA,13,WEEK 26,2014-09-09,815
CDISCPILOT01,VS,01-701-1118,84,PULSE,Pulse Rate,STANDING,75,BEATS/MIN,NA,NA,13,WEEK 26,2014-09-09,816
CDISCPILOT01,VS,01-701-1118,85,PULSE,Pulse Rate,STANDING,75,BEATS/MIN,NA,NA,13,WEEK 26,2014-09-09,817
CDISCPILOT01,VS,01-701-1118,86,SYSBP,Systolic Blood Pressure,SUPINE,122,mmHg,NA,NA,1,SCREENING 1,2014-02-27,815
CDISCPILOT01,VS,01-701-1118,87,SYSBP,Systolic Blood Pressure,STANDING,106,mmHg,NA,NA,1,SCREENING 1,2014-02-27,816
CDISCPILOT01,VS,01-701-1118,88,SYSBP,Systolic Blood Pressure,STANDING,107,mmHg,NA,NA,1,SCREENING 1,2014-02-27,817
CDISCPILOT01,VS,01-701-1118,89,SYSBP,Systolic Blood Pressure,SUPINE,138,mmHg,NA,NA,2,SCREENING 2,2014-03-10,815
CDISCPILOT01,VS,01-701-1118,90,SYSBP,Systolic Blood Pressure,STANDING,137,mmHg,NA,NA,2,SCREENING 2,2014-03-10,816
CDISCPILOT01,VS,01-701-1118,91,SYSBP,Systolic Blood Pressure,STANDING,138,mmHg,NA,NA,2,SCREENING 2,2014-03-10,817
CDISCPILOT01,VS,01-701-1118,92,SYSBP,Systolic Blood Pressure,SUPINE,137,mmHg,NA,Y,3,BASELINE,2014-03-12,815
CDISCPILOT01,VS,01-701-1118,93,SYSBP,Systolic Blood Pressure,STANDING,129,mmHg,NA,Y,3,BASELINE,2014-03-12,816
CDISCPILOT01,VS,01-701-1118,94,SYSBP,Systolic Blood Pressure,STANDING,123,mmHg,NA,Y,3,BASELINE,2014-03-12,817
CDISCPILOT01,VS,01-701-1118,95,SYSBP,Systolic Blood Pressure,SUPINE,NA,mmHg,NA,NA,3.5,AMBUL ECG PLACEMENT,2014-03-25,815
CDISCPILOT01,VS,01-701-1118,96,SYSBP,Systolic Blood Pressure,STANDING,126,mmHg,NA,NA,3.5,AMBUL ECG PLACEMENT,2014-03-25,816
CDISCPILOT01,VS,01-701-1118,97,SYSBP,Systolic Blood Pressure,STANDING,NA,mmHg,NA,NA,3.5,AMBUL ECG PLACEMENT,2014-03-25,817
CDISCPILOT01,VS,01-701-1118,98,SYSBP,Systolic Blood Pressure,SUPINE,129,mmHg,NA,NA,4,WEEK 2,2014-03-26,815
CDISCPILOT01,VS,01-701-1118,99,SYSBP,Systolic Blood Pressure,STANDING,127,mmHg,NA,NA,4,WEEK 2,2014-03-26,816
CDISCPILOT01,VS,01-701-1118,100,SYSBP,Systolic Blood Pressure,STANDING,131,mmHg,NA,NA,4,WEEK 2,2014-03-26,817
CDISCPILOT01,VS,01-701-1118,101,SYSBP,Systolic Blood Pressure,SUPINE,NA,mmHg,NA,NA,5,WEEK 4,2014-04-09,815
CDISCPILOT01,VS,01-701-1118,102,SYSBP,Systolic Blood Pressure,STANDING,114,mmHg,NA,NA,5,WEEK 4,2014-04-09,816
CDISCPILOT01,VS,01-701-1118,103,SYSBP,Systolic Blood Pressure,STANDING,130,mmHg,NA,NA,5,WEEK 4,2014-04-09,817
CDISCPILOT01,VS,01-701-1118,104,SYSBP,Systolic Blood Pressure,SUPINE,NA,mmHg,NA,NA,6,AMBUL ECG REMOVAL,2014-04-11,815
CDISCPILOT01,VS,01-701-1118,105,SYSBP,Systolic Blood Pressure,STANDING,114,mmHg,NA,NA,6,AMBUL ECG REMOVAL,2014-04-11,816
CDISCPILOT01,VS,01-701-1118,106,SYSBP,Systolic Blood Pressure,STANDING,NA,mmHg,NA,NA,6,AMBUL ECG REMOVAL,2014-04-11,817
CDISCPILOT01,VS,01-701-1118,107,SYSBP,Systolic Blood Pressure,SUPINE,129,mmHg,NA,NA,7,WEEK 6,2014-04-23,815
CDISCPILOT01,VS,01-701-1118,108,SYSBP,Systolic Blood Pressure,STANDING,122,mmHg,NA,NA,7,WEEK 6,2014-04-23,816
CDISCPILOT01,VS,01-701-1118,109,SYSBP,Systolic Blood Pressure,STANDING,122,mmHg,NA,NA,7,WEEK 6,2014-04-23,817
CDISCPILOT01,VS,01-701-1118,110,SYSBP,Systolic Blood Pressure,SUPINE,126,mmHg,NA,NA,8,WEEK 8,2014-05-08,815
CDISCPILOT01,VS,01-701-1118,111,SYSBP,Systolic Blood Pressure,STANDING,106,mmHg,NA,NA,8,WEEK 8,2014-05-08,816
CDISCPILOT01,VS,01-701-1118,112,SYSBP,Systolic Blood Pressure,STANDING,131,mmHg,NA,NA,8,WEEK 8,2014-05-08,817
CDISCPILOT01,VS,01-701-1118,113,SYSBP,Systolic Blood Pressure,SUPINE,NA,mmHg,NA,NA,9,WEEK 12,2014-06-05,815
CDISCPILOT01,VS,01-701-1118,114,SYSBP,Systolic Blood Pressure,STANDING,130,mmHg,NA,NA,9,WEEK 12,2014-06-05,816
CDISCPILOT01,VS,01-701-1118,115,SYSBP,Systolic Blood Pressure,STANDING,130,mmHg,NA,NA,9,WEEK 12,2014-06-05,817
CDISCPILOT01,VS,01-701-1118,116,SYSBP,Systolic Blood Pressure,SUPINE,122,mmHg,NA,NA,10,WEEK 16,2014-07-02,815
CDISCPILOT01,VS,01-701-1118,117,SYSBP,Systolic Blood Pressure,STANDING,122,mmHg,NA,NA,10,WEEK 16,2014-07-02,816
CDISCPILOT01,VS,01-701-1118,118,SYSBP,Systolic Blood Pressure,STANDING,114,mmHg,NA,NA,10,WEEK 16,2014-07-02,817
CDISCPILOT01,VS,01-701-1118,119,SYSBP,Systolic Blood Pressure,SUPINE,NA,mmHg,NA,NA,11,WEEK 20,2014-07-30,815
CDISCPILOT01,VS,01-701-1118,120,SYSBP,Systolic Blood Pressure,STANDING,154,mmHg,NA,NA,11,WEEK 20,2014-07-30,816
CDISCPILOT01,VS,01-701-1118,121,SYSBP,Systolic Blood Pressure,STANDING,135,mmHg,NA,NA,11,WEEK 20,2014-07-30,817
CDISCPILOT01,VS,01-701-1118,122,SYSBP,Systolic Blood Pressure,SUPINE,130,mmHg,NA,NA,12,WEEK 24,2014-08-27,815
CDISCPILOT01,VS,01-701-1118,123,SYSBP,Systolic Blood Pressure,STANDING,107,mmHg,NA,NA,12,WEEK 24,2014-08-27,816
CDISCPILOT01,VS,01-701-1118,124,SYSBP,Systolic Blood Pressure,STANDING,116,mmHg,NA,NA,12,WEEK 24,2014-08-27,817
CDISCPILOT01,VS,01-701-1118,125,SYSBP,Systolic Blood Pressure,SUPINE,121,mmHg,NA,NA,13,WEEK 26,2014-09-09,815
CDISCPILOT01,VS,01-701-1118,126,SYSBP,Systolic Blood Pressure,STANDING,NA,mmHg,NA,NA,13,WEEK 26,2014-09-09,816
CDISCPILOT01,VS,01-701-1118,127,SYSBP,Systolic Blood Pressure,STANDING,122,mmHg,NA,NA,13,WEEK 26,2014-09-09,817
CDISCPILOT01,VS,01-701-1118,128,TEMP,Temperature,NA,98.4,F,NA,NA,1,SCREENING 1,2014-02-27,NA
CDISCPILOT01,VS,01-701-1118,129,TEMP,Temperature,NA,97.5,F,NA,NA,2,SCREENING 2,2014-03-10,NA
CDISCPILOT01,VS,01-701-1118,130,TEMP,Temperature,NA,97.5,F,NA,Y,3,BASELINE,2014-03-12,NA
CDISCPILOT01,VS,01-701-1118,131,TEMP,Temperature,NA,97.6,F,NA,NA,3.5,AMBUL ECG PLACEMENT,2014-03-25,NA
CDISCPILOT01,VS,01-701-1118,132,TEMP,Temperature,NA,98.1,F,NA,NA,4,WEEK 2,2014-03-26,NA
CDISCPILOT01,VS,01-701-1118,133,TEMP,Temperature,NA,98.3,F,NA,NA,5,WEEK 4,2014-04-09,NA
CDISCPILOT01,VS,01-701-1118,134,TEMP,Temperature,NA,97.9,F,NA,NA,6,AMBUL ECG REMOVAL,2014-04-11,NA
CDISCPILOT01,VS,01-701-1118,135,TEMP,Temperature,NA,98.3,F,NA,NA,7,WEEK 6,2014-04-23,NA
CDISCPILOT01,VS,01-701-1118,136,TEMP,Temperature,NA,98.0,F,NA,NA,8,WEEK 8,2014-05-08,NA
CDISCPILOT01,VS,01-701-1118,137,TEMP,Temperature,NA,98.1,F,NA,NA,9,WEEK 12,2014-06-05,NA
CDISCPILOT01,VS,01-701-1118,138,TEMP,Temperature,NA,97.2,F,NA,NA,10,WEEK 16,2014-07-02,NA
CDISCPILOT01,VS,01-701-1118,139,TEMP,Temperature,NA,99.8,F,NA,NA,11,WEEK 20,2014-07-30,NA
CDISCPILOT01,VS,01-701-1118,140,TEMP,Temperature,NA,98.6,F,NA,NA,12,WEEK 24,2014-08-27,NA
CDISCPILOT01,VS,01-701-1118,141,TEMP,Temperature,NA,98.2,F,NA,NA,13,WEEK 26,2014-09-09,NA
CDISCPILOT01,VS,01-701-1118,142,WEIGHT,Weight,NA,158.0,LB,NA,NA,1,SCREENING 1,2014-02-27,NA
CDISCPILOT01,VS,01-701-1118,143,WEIGHT,Weight,NA,157.0,LB,NA,Y,3,BASELINE,2014-03-12,NA
CDISCPILOT01,VS,01-701-1118,144,WEIGHT,Weight,NA,157.0,LB,NA,NA,4,WEEK 2,2014-03-26,NA
CDISCPILOT01,VS,01-701-1118,145,WEIGHT,Weight,NA,157.0,LB,NA,NA,5,WEEK 4,2014-04-09,NA
CDISCPILOT01,VS,01-701-1118,146,WEIGHT,Weight,NA,157.0,LB,NA,NA,7,WEEK 6,2014-04-23,NA
CDISCPILOT01,VS,01-701-1118,147,WEIGHT,Weight,NA,160.0,LB,NA,NA,8,WEEK 8,2014-05-08,NA
CDISCPILOT01,VS,01-701-1118,148,WEIGHT,Weight,NA,162.0,LB,NA,NA,9,WEEK 12,2014-06-05,NA
CDISCPILOT01,VS,01-701-1118,149,WEIGHT,Weight,NA,161.0,LB,NA,NA,10,WEEK 16,2014-07-02,NA
CDISCPILOT01,VS,01-701-1118,150,WEIGHT,Weight,NA,NA,LB,NA,NA,11,WEEK 20,2014-07-30,NA
CDISCPILOT01,VS,01-701-1118,151,WEIGHT,Weight,NA,157.0,LB,NA,NA,12,WEEK 24,2014-08-27,NA
CDISCPILOT01,VS,01-701-1118,152,WEIGHT,Weight,NA,161.0,LB,NA,NA,13,WEEK 26,2014-09-09,NA
CDISCPILOT01,VS,01-701-1130,1,DIABP,Diastolic Blood Pressure,SUPINE,68,mmHg,NA,NA,1,SCREENING 1,2014-02-09,815
CDISCPILOT01,VS,01-701-1130,2,DIABP,Diastolic Blood Pressure,STANDING,71,mmHg,NA,NA,1,SCREENING 1,2014-02-09,816
CDISCPILOT01,VS,01-701-1130,3,DIABP,Diastolic Blood Pressure,STANDING,70,mmHg,NA,NA,1,SCREENING 1,2014-02-09,817
CDISCPILOT01,VS,01-701-1130,4,DIABP,Diastolic Blood Pressure,SUPINE,71,mmHg,NA,NA,2,SCREENING 2,2014-02-13,815
CDISCPILOT01,VS,01-701-1130,5,DIABP,Diastolic Blood Pressure,STANDING,64,mmHg,NA,NA,2,SCREENING 2,2014-02-13,816
CDISCPILOT01,VS,01-701-1130,6,DIABP,Diastolic Blood Pressure,STANDING,76,mmHg,NA,NA,2,SCREENING 2,2014-02-13,817
CDISCPILOT01,VS,01-701-1130,7,DIABP,Diastolic Blood Pressure,SUPINE,NA,mmHg,NA,Y,3,BASELINE,2014-02-15,815
CDISCPILOT01,VS,01-701-1130,8,DIABP,Diastolic Blood Pressure,STANDING,67,mmHg,NA,Y,3,BASELINE,2014-02-15,816
CDISCPILOT01,VS,01-701-1130,9,DIABP,Diastolic Blood Pressure,STANDING,68,mmHg,NA,Y,3,BASELINE,2014-02-15,817
CDISCPILOT01,VS,01-701-1130,10,DIABP,Diastolic Blood Pressure,SUPINE,75,mmHg,NA,NA,3.5,AMBUL ECG PLACEMENT,2014-02-28,815
CDISCPILOT01,VS,01-701-1130,11,DIABP,Diastolic Blood Pressure,STANDING,72,mmHg,NA,NA,3.5,AMBUL ECG PLACEMENT,2014-02-28,816
CDISCPILOT01,VS,01-701-1130,12,DIABP,Diastolic Blood Pressure,STANDING,73,mmHg,NA,NA,3.5,AMBUL ECG PLACEMENT,2014-02-28,817
CDISCPILOT01,VS,01-701-1130,13,DIABP,Diastolic Blood Pressure,SUPINE,72,mmHg,NA,NA,4,WEEK 2,2014-03-01,815
CDISCPILOT01,VS,01-701-1130,14,DIABP,Diastolic Blood Pressure,STANDING,69,mmHg,NA,NA,4,WEEK 2,2014-03-01,816
CDISCPILOT01,VS,01-701-1130,15,DIABP,Diastolic Blood Pressure,STANDING,65,mmHg,NA,NA,4,WEEK 2,2014-03-01,817
CDISCPILOT01,VS,01-701-1130,16,DIABP,Diastolic Blood Pressure,SUPINE,74,mmHg,NA,NA,5,WEEK 4,2014-03-15,815
CDISCPILOT01,VS,01-701-1130,17,DIABP,Diastolic Blood Pressure,STANDING,80,mmHg,NA,NA,5,WEEK 4,2014-03-15,816
CDISCPILOT01,VS,01-701-1130,18,DIABP,Diastolic Blood Pressure,STANDING,72,mmHg,NA,NA,5,WEEK 4,2014-03-15,817
CDISCPILOT01,VS,01-701-1130,19,DIABP,Diastolic Blood Pressure,SUPINE,68,mmHg,NA,NA,6,AMBUL ECG REMOVAL,2014-03-17,815
CDISCPILOT01,VS,01-701-1130,20,DIABP,Diastolic Blood Pressure,STANDING,68,mmHg,NA,NA,6,AMBUL ECG REMOVAL,2014-03-17,816
CDISCPILOT01,VS,01-701-1130,21,DIABP,Diastolic Blood Pressure,STANDING,NA,mmHg,NA,NA,6,AMBUL ECG REMOVAL,2014-03-17,817
CDISCPILOT01,VS,01-701-1130,22,DIABP,Diastolic Blood Pressure,SUPINE,64,mmHg,NA,NA,7,WEEK 6,2014-03-29,815
CDISCPILOT01,VS,01-701-1130,23,DIABP,Diastolic Blood Pressure,STANDING,70,mmHg,NA,NA,7,WEEK 6,2014-03-29,816
CDISCPILOT01,VS,01-701-1130,24,DIABP,Diastolic Blood Pressure,STANDING,71,mmHg,NA,NA,7,WEEK 6,2014-03-29,817
CDISCPILOT01,VS,01-701-1130,25,DIABP,Diastolic Blood Pressure,SUPINE,75,mmHg,NA,NA,8,WEEK 8,2014-04-12,815
CDISCPILOT01,VS,01-701-1130,26,DIABP,Diastolic Blood Pressure,STANDING,68,mmHg,NA,NA,8,WEEK 8,2014-04-12,816
CDISCPILOT01,VS,01-701-1130,27,DIABP,Diastolic Blood Pressure,STANDING,76,mmHg,NA,NA,8,WEEK 8,2014-04-12,817
CDISCPILOT01,VS,01-701-1130,28,DIABP,Diastolic Blood Pressure,SUPINE,NA,mmHg,NA,NA,9,WEEK 12,2014-05-16,815
CDISCPILOT01,VS,01-701-1130,29,DIABP,Diastolic Blood Pressure,STANDING,60,mmHg,NA,NA,9,WEEK 12,2014-05-16,816
CDISCPILOT01,VS,01-701-1130,30,DIABP,Diastolic Blood Pressure,STANDING,72,mmHg,NA,NA,9,WEEK 12,2014-05-16,817
CDISCPILOT01,VS,01-701-1130,31,DIABP,Diastolic Blood Pressure,SUPINE,76,mmHg,NA,NA,10,WEEK 16,2014-06-07,815
CDISCPILOT01,VS,01-701-1130,32,DIABP,Diastolic Blood Pressure,STANDING,73,mmHg,NA,NA,10,WEEK 16,2014-06-07,816
CDISCPILOT01,VS,01-701-1130,33,DIABP,Diastolic Blood Pressure,STANDING,76,mmHg,NA,NA,10,WEEK 16,2014-06-07,817
CDISCPILOT01,VS,01-701-1130,34,DIABP,Diastolic Blood Pressure,SUPINE,63,mmHg,NA,NA,11,WEEK 20,2014-07-02,815
CDISCPILOT01,VS,01-701-1130,35,DIABP,Diastolic Blood Pressure,STANDING,64,mmHg,NA,NA,11,WEEK 20,2014-07-02,816
CDISCPILOT01,VS,01-701-1130,36,DIABP,Diastolic Blood Pressure,STANDING,56,mmHg,NA,NA,11,WEEK 20,2014-07-02,817
CDISCPILOT01,VS,01-701-1130,37,DIABP,Diastolic Blood Pressure,SUPINE,76,mmHg,NA,NA,12,WEEK 24,2014-08-02,815
CDISCPILOT01,VS,01-701-1130,38,DIABP,Diastolic Blood Pressure,STANDING,76,mmHg,NA,NA,12,WEEK 24,2014-08-02,816
CDISCPILOT01,VS,01-701-1130,39,DIABP,Diastolic Blood Pressure,STANDING,NA,mmHg,NA,NA,12,WEEK 24,2014-08-02,817
CDISCPILOT01,VS,01-701-1130,40,DIABP,Diastolic Blood Pressure,SUPINE,70,mmHg,NA,NA,13,WEEK 26,2014-08-16,815
CDISCPILOT01,VS,01-701-1130,41,DIABP,Diastolic Blood Pressure,STANDING,91,mmHg,NA,NA,13,WEEK 26,2014-08-16,816
CDISCPILOT01,VS,01-701-1130,42,DIABP,Diastolic Blood Pressure,STANDING,84,mmHg,NA,NA,13,WEEK 26,2014-08-16,817
CDISCPILOT01,VS,01-701-1130,43,HEIGHT,Height,NA,66.8,IN,NA,NA,1,SCREENING 1,2014-02-09,NA
CDISCPILOT01,VS,01-701-1130,44,PULSE,Pulse Rate,SUPINE,71,BEATS/MIN,NA,NA,1,SCREENING 1,2014-02-09,815
CDISCPILOT01,VS,01-701-1130,45,PULSE,Pulse Rate,STANDING,NA,BEATS/MIN,NA,NA,1,SCREENING 1,2014-02-09,816
CDISCPILOT01,VS,01-701-1130,46,PULSE,Pulse Rate,STANDING,72,BEATS/MIN,NA,NA,1,SCREENING 1,2014-02-09,817
CDISCPILOT01,VS,01-701-1130,47,PULSE,Pulse Rate,SUPINE,67,BEATS/MIN,NA,NA,2,SCREENING 2,2014-02-13,815
CDISCPILOT01,VS,01-701-1130,48,PULSE,Pulse Rate,STANDING,71,BEATS/MIN,NA,NA,2,SCREENING 2,2014-02-13,816
CDISCPILOT01,VS,01-701-1130,49,PULSE,Pulse Rate,STANDING,70,BEATS/MIN,NA,NA,2,SCREENING 2,2014-02-13,817
CDISCPILOT01,VS,01-701-1130,50,PULSE,Pulse Rate,SUPINE,70,BEATS/MIN,NA,Y,3,BASELINE,2014-02-15,815
CDISCPILOT01,VS,01-701-1130,51,PULSE,Pulse Rate,STANDING,77,BEATS/MIN,NA,Y,3,BASELINE,2014-02-15,816
CDISCPILOT01,VS,01-701-1130,52,PULSE,Pulse Rate,STANDING,76,BEATS/MIN,NA,Y,3,BASELINE,2014-02-15,817
CDISCPILOT01,VS,01-701-1130,53,PULSE,Pulse Rate,SUPINE,NA,BEATS/MIN,NA,NA,3.5,AMBUL ECG PLACEMENT,2014-02-28,815
CDISCPILOT01,VS,01-701-1130,54,PULSE,Pulse Rate,STANDING,70,BEATS/MIN,NA,NA,3.5,AMBUL ECG PLACEMENT,2014-02-28,816
CDISCPILOT01,VS,01-701-1130,55,PULSE,Pulse Rate,STANDING,68,BEATS/MIN,NA,NA,3.5,AMBUL ECG PLACEMENT,2014-02-28,817
CDISCPILOT01,VS,01-701-1130,56,PULSE,Pulse Rate,SUPINE,68,BEATS/MIN,NA,NA,4,WEEK 2,2014-03-01,815
CDISCPILOT01,VS,01-701-1130,57,PULSE,Pulse Rate,STANDING,76,BEATS/MIN,NA,NA,4,WEEK 2,2014-03-01,816
CDISCPILOT01,VS,01-701-1130,58,PULSE,Pulse Rate,STANDING,72,BEATS/MIN,NA,NA,4,WEEK 2,2014-03-01,817
CDISCPILOT01,VS,01-701-1130,59,PULSE,Pulse Rate,SUPINE,74,BEATS/MIN,NA,NA,5,WEEK 4,2014-03-15,815
CDISCPILOT01,VS,01-701-1130,60,PULSE,Pulse Rate,STANDING,80,BEATS/MIN,NA,NA,5,WEEK 4,2014-03-15,816
CDISCPILOT01,VS,01-701-1130,61,PULSE,Pulse Rate,STANDING,79,BEATS/MIN,NA,NA,5,WEEK 4,2014-03-15,817
CDISCPILOT01,VS,01-701-1130,62,PULSE,Pulse Rate,SUPINE,69,BEATS/MIN,NA,NA,6,AMBUL ECG REMOVAL,2014-03-17,815
CDISCPILOT01,VS,01-701-1130,63,PULSE,Pulse Rate,STANDING,78,BEATS/MIN,NA,NA,6,AMBUL ECG REMOVAL,2014-03-17,816
CDISCPILOT01,VS,01-701-1130,64,PULSE,Pulse Rate,STANDING,82,BEATS/MIN,NA,NA,6,AMBUL ECG REMOVAL,2014-03-17,817
CDISCPILOT01,VS,01-701-1130,65,PULSE,Pulse Rate,SUPINE,NA,BEATS/MIN,NA,NA,7,WEEK 6,2014-03-29,815
CDISCPILOT01,VS,01-701-1130,66,PULSE,Pulse Rate,STANDING,72,BEATS/MIN,NA,NA,7,WEEK 6,2014-03-29,816
CDISCPILOT01,VS,01-701-1130,67,PULSE,Pulse Rate,STANDING,72,BEATS/MIN,NA,NA,7,WEEK 6,2014-03-29,817
CDISCPILOT01,VS,01-701-1130,68,PULSE,Pulse Rate,SUPINE,70,BEATS/MIN,NA,NA,8,WEEK 8,2014-04-12,815
CDISCPILOT01,VS,01-701-1130,69,PULSE,Pulse Rate,STANDING,76,BEATS/MIN,NA,NA,8,WEEK 8,2014-04-12,816
CDISCPILOT01,VS,01-701-1130,70,PULSE,Pulse Rate,STANDING,75,BEATS/MIN,NA,NA,8,WEEK 8,2014-04-12,817
CDISCPILOT01,VS,01-701-1130,71,PULSE,Pulse Rate,SUPINE,68,BEATS/MIN,NA,NA,9,WEEK 12,2014-05-16,815
CDISCPILOT01,VS,01-701-1130,72,PULSE,Pulse Rate,STANDING,75,BEATS/MIN,NA,NA,9,WEEK 12,2014-05-16,816
CDISCPILOT01,VS,01-701-1130,73,PULSE,Pulse Rate,STANDING,74,BEATS/MIN,NA,NA,9,WEEK 12,2014-05-16,817
CDISCPILOT01,VS,01-701-1130,74,PULSE,Pulse Rate,SUPINE,65,BEATS/MIN,NA,NA,10,WEEK 16,2014-06-07,815
CDISCPILOT01,VS,01-701-1130,75,PULSE,Pulse Rate,STANDING,72,BEATS/MIN,NA,NA,10,WEEK 16,2014-06-07,816
CDISCPILOT01,VS,01-701-1130,76,PULSE,Pulse Rate,STANDING,72,BEATS/MIN,NA,NA,10,WEEK 16,2014-06-07,817
CDISCPILOT01,VS,01-701-1130,77,PULSE,Pulse Rate,SUPINE,74,BEATS/MIN,NA,NA,11,WEEK 20,2014-07-02,815
CDISCPILOT01,VS,01-701-1130,78,PULSE,Pulse Rate,STANDING,83,BEATS/MIN,NA,NA,11,WEEK 20,2014-07-02,816
CDISCPILOT01,VS,01-701-1130,79,PULSE,Pulse Rate,STANDING,80,BEATS/MIN,NA,NA,11,WEEK 20,2014-07-02,817
CDISCPILOT01,VS,01-701-1130,80,PULSE,Pulse Rate,SUPINE,60,BEATS/MIN,NA,NA,12,WEEK 24,2014-08-02,815
CDISCPILOT01,VS,01-701-1130,81,PULSE,Pulse Rate,STANDING,76,BEATS/MIN,NA,NA,12,WEEK 24,2014-08-02,816
CDISCPILOT01,VS,01-701-1130,82,PULSE,Pulse Rate,STANDING,74,BEATS/MIN,NA,NA,12,WEEK 24,2014-08-02,817
CDISCPILOT01,VS,01-701-1130,83,PULSE,Pulse Rate,SUPINE,63,BEATS/MIN,NA,NA,13,WEEK 26,2014-08-16,815
CDISCPILOT01,VS,01-701-1130,84,PULSE,Pulse Rate,STANDING,76,BEATS/MIN,NA,NA,13,WEEK 26,2014-08-16,816
CDISCPILOT01,VS,01-701-1130,85,PULSE,Pulse Rate,STANDING,76,BEATS/MIN,NA,NA,13,WEEK 26,2014-08-16,817
CDISCPILOT01,VS,01-701-1130,86,SYSBP,Systolic Blood Pressure,SUPINE,130,mmHg,NA,NA,1,SCREENING 1,2014-02-09,815
CDISCPILOT01,VS,01-701-1130,87,SYSBP,Systolic Blood Pressure,STANDING,121,mmHg,NA,NA,1,SCREENING 1,2014-02-09,816
CDISCPILOT01,VS,01-701-1130,88,SYSBP,Systolic Blood Pressure,STANDING,130,mmHg,NA,NA,1,SCREENING 1,2014-02-09,817
CDISCPILOT01,VS,01-701-1130,89,SYSBP,Systolic Blood Pressure,SUPINE,135,mmHg,NA,NA,2,SCREENING 2,2014-02-13,815
CDISCPILOT01,VS,01-701-1130,90,SYSBP,Systolic Blood Pressure,STANDING,122,mmHg,NA,NA,2,SCREENING 2,2014-02-13,816
CDISCPILOT01,VS,01-701-1130,91,SYSBP,Systolic Blood Pressure,STANDING,131,mmHg,NA,NA,2,SCREENING 2,2014-02-13,817
CDISCPILOT01,VS,01-701-1130,92,SYSBP,Systolic Blood Pressure,SUPINE,122,mmHg,NA,Y,3,BASELINE,2014-02-15,815
CDISCPILOT01,VS,01-701-1130,93,SYSBP,Systolic Blood Pressure,STANDING,122,mmHg,NA,Y,3,BASELINE,2014-02-15,816
CDISCPILOT01,VS,01-701-1130,94,SYSBP,Systolic Blood Pressure,STANDING,130,mmHg,NA,Y,3,BASELINE,2014-02-15,817
CDISCPILOT01,VS,01-701-1130,95,SYSBP,Systolic Blood Pressure,SUPINE,145,mmHg,NA,NA,3.5,AMBUL ECG PLACEMENT,2014-02-28,815
CDISCPILOT01,VS,01-701-1130,96,SYSBP,Systolic Blood Pressure,STANDING,138,mmHg,NA,NA,3.5,AMBUL ECG PLACEMENT,2014-02-28,816
CDISCPILOT01,VS,01-701-1130,97,SYSBP,Systolic Blood Pressure,STANDING,131,mmHg,NA,NA,3.5,AMBUL ECG PLACEMENT,2014-02-28,817
CDISCPILOT01,VS,01-701-1130,98,SYSBP,Systolic Blood Pressure,SUPINE,123,mmHg,NA,NA,4,WEEK 2,2014-03-01,815
CDISCPILOT01,VS,01-701-1130,99,SYSBP,Systolic Blood Pressure,STANDING,131,mmHg,NA,NA,4,WEEK 2,2014-03-01,816
CDISCPILOT01,VS,01-701-1130,100,SYSBP,Systolic Blood Pressure,STANDING,123,mmHg,NA,NA,4,WEEK 2,2014-03-01,817
CDISCPILOT01,VS,01-701-1130,101,SYSBP,Systolic Blood Pressure,SUPINE,100,mmHg,NA,NA,5,WEEK 4,2014-03-15,815
CDISCPILOT01,VS,01-701-1130,102,SYSBP,Systolic Blood Pressure,STANDING,123,mmHg,NA,NA,5,WEEK 4,2014-03-15,816
CDISCPILOT01,VS,01-701-1130,103,SYSBP,Systolic Blood Pressure,STANDING,123,mmHg,NA,NA,5,WEEK 4,2014-03-15,817
CDISCPILOT01,VS,01-701-1130,104,SYSBP,Systolic Blood Pressure,SUPINE,115,mmHg,NA,NA,6,AMBUL ECG REMOVAL,2014-03-17,815
CDISCPILOT01,VS,01-701-1130,105,SYSBP,Systolic Blood Pressure,STANDING,115,mmHg,NA,NA,6,AMBUL ECG REMOVAL,2014-03-17,816
CDISCPILOT01,VS,01-701-1130,106,SYSBP,Systolic Blood Pressure,STANDING,122,mmHg,NA,NA,6,AMBUL ECG REMOVAL,2014-03-17,817
CDISCPILOT01,VS,01-701-1130,107,SYSBP,Systolic Blood Pressure,SUPINE,123,mmHg,NA,NA,7,WEEK 6,2014-03-29,815
CDISCPILOT01,VS,01-701-1130,108,SYSBP,Systolic Blood Pressure,STANDING,121,mmHg,NA,NA,7,WEEK 6,2014-03-29,816
CDISCPILOT01,VS,01-701-1130,109,SYSBP,Systolic Blood Pressure,STANDING,136,mmHg,NA,NA,7,WEEK 6,2014-03-29,817
CDISCPILOT01,VS,01-701-1130,110,SYSBP,Systolic Blood Pressure,SUPINE,145,mmHg,NA,NA,8,WEEK 8,2014-04-12,815
CDISCPILOT01,VS,01-701-1130,111,SYSBP,Systolic Blood Pressure,STANDING,138,mmHg,NA,NA,8,WEEK 8,2014-04-12,816
CDISCPILOT01,VS,01-701-1130,112,SYSBP,Systolic Blood Pressure,STANDING,146,mmHg,NA,NA,8,WEEK 8,2014-04-12,817
CDISCPILOT01,VS,01-701-1130,113,SYSBP,Systolic Blood Pressure,SUPINE,114,mmHg,NA,NA,9,WEEK 12,2014-05-16,815
CDISCPILOT01,VS,01-701-1130,114,SYSBP,Systolic Blood Pressure,STANDING,117,mmHg,NA,NA,9,WEEK 12,2014-05-16,816
CDISCPILOT01,VS,01-701-1130,115,SYSBP,Systolic Blood Pressure,STANDING,122,mmHg,NA,NA,9,WEEK 12,2014-05-16,817
CDISCPILOT01,VS,01-701-1130,116,SYSBP,Systolic Blood Pressure,SUPINE,NA,mmHg,NA,NA,10,WEEK 16,2014-06-07,815
CDISCPILOT01,VS,01-701-1130,117,SYSBP,Systolic Blood Pressure,STANDING,141,mmHg,NA,NA,10,WEEK 16,2014-06-07,816
CDISCPILOT01,VS,01-701-1130,118,SYSBP,Systolic Blood Pressure,STANDING,155,mmHg,NA,NA,10,WEEK 16,2014-06-07,817
CDISCPILOT01,VS,01-701-1130,119,SYSBP,Systolic Blood Pressure,SUPINE,114,mmHg,NA,NA,11,WEEK 20,2014-07-02,815
CDISCPILOT01,VS,01-701-1130,120,SYSBP,Systolic Blood Pressure,STANDING,107,mmHg,NA,NA,11,WEEK 20,2014-07-02,816
CDISCPILOT01,VS,01-701-1130,121,SYSBP,Systolic Blood Pressure,STANDING,NA,mmHg,NA,NA,11,WEEK 20,2014-07-02,817
CDISCPILOT01,VS,01-701-1130,122,SYSBP,Systolic Blood Pressure,SUPINE,124,mmHg,NA,NA,12,WEEK 24,2014-08-02,815
CDISCPILOT01,VS,01-701-1130,123,SYSBP,Systolic Blood Pressure,STANDING,124,mmHg,NA,NA,12,WEEK 24,2014-08-02,816
CDISCPILOT01,VS,01-701-1130,124,SYSBP,Systolic Blood Pressure,STANDING,139,mmHg,NA,NA,12,WEEK 24,2014-08-02,817
CDISCPILOT01,VS,01-701-1130,125,SYSBP,Systolic Blood Pressure,SUPINE,140,mmHg,NA,NA,13,WEEK 26,2014-08-16,815
CDISCPILOT01,VS,01-701-1130,126,SYSBP,Systolic Blood Pressure,STANDING,130,mmHg,NA,NA,13,WEEK 26,2014-08-16,816
CDISCPILOT01,VS,01-701-1130,127,SYSBP,Systolic Blood Pressure,STANDING,155,mmHg,NA,NA,13,WEEK 26,2014-08-16,817
CDISCPILOT01,VS,01-701-1130,128,TEMP,Temperature,NA,97.6,F,NA,NA,1,SCREENING 1,2014-02-09,NA
CDISCPILOT01,VS,01-701-1130,129,TEMP,Temperature,NA,NA,F,NA,NA,2,SCREENING 2,2014-02-13,NA
CDISCPILOT01,VS,01-701-1130,130,TEMP,Temperature,NA,96.8,F,NA,Y,3,BASELINE,2014-02-15,NA
CDISCPILOT01,VS,01-701-1130,131,TEMP,Temperature,NA,97.5,F,NA,NA,3.5,AMBUL ECG PLACEMENT,2014-02-28,NA
CDISCPILOT01,VS,01-701-1130,132,TEMP,Temperature,NA,98.2,F,NA,NA,4,WEEK 2,2014-03-01,NA
CDISCPILOT01,VS,01-701-1130,133,TEMP,Temperature,NA,NA,F,NA,NA,5,WEEK 4,2014-03-15,NA
CDISCPILOT01,VS,01-701-1130,134,TEMP,Temperature,NA,98.0,F,NA,NA,6,AMBUL ECG REMOVAL,2014-03-17,NA
CDISCPILOT01,VS,01-701-1130,135,TEMP,Temperature,NA,97.8,F,NA,NA,7,WEEK 6,2014-03-29,NA
CDISCPILOT01,VS,01-701-1130,136,TEMP,Temperature,NA,96.1,F,NA,NA,8,WEEK 8,2014-04-12,NA
CDISCPILOT01,VS,01-701-1130,137,TEMP,Temperature,NA,NA,F,NA,NA,9,WEEK 12,2014-05-16,NA
CDISCPILOT01,VS,01-701-1130,138,TEMP,Temperature,NA,97.4,F,NA,NA,10,WEEK 16,2014-06-07,NA
CDISCPILOT01,VS,01-701-1130,139,TEMP,Temperature,NA,97.3,F,NA,NA,11,WEEK 20,2014-07-02,NA
CDISCPILOT01,VS,01-701-1130,140,TEMP,Temperature,NA,97.2,F,NA,NA,12,WEEK 24,2014-08-02,NA
CDISCPILOT01,VS,01-701-1130,141,TEMP,Temperature,NA,97.1,F,NA,NA,13,WEEK 26,2014-08-16,NA
CDISCPILOT01,VS,01-701-1130,142,WEIGHT,Weight,NA,175.0,LB,NA,NA,1,SCREENING 1,2014-02-09,NA
CDISCPILOT01,VS,01-701-1130,143,WEIGHT,Weight,NA,175.0,LB,NA,Y,3,BASELINE,2014-02-15,NA
CDISCPILOT01,VS,01-701-1130,144,WEIGHT,Weight,NA,175.0,LB,NA,NA,4,WEEK 2,2014-03-01,NA
CDISCPILOT01,VS,01-701-1130,145,WEIGHT,Weight,NA,172.0,LB,NA,NA,5,WEEK 4,2014-03-15,NA
CDISCPILOT01,VS,01-701-1130,146,WEIGHT,Weight,NA,NA,LB,NA,NA,7,WEEK 6,2014-03-29,NA
CDISCPILOT01,VS,01-701-1130,147,WEIGHT,Weight,NA,176.0,LB,NA,NA,8,WEEK 8,2014-04-12,NA
CDISCPILOT01,VS,01-701-1130,148,WEIGHT,Weight,NA,173.0,LB,NA,NA,9,WEEK 12,2014-05-16,NA
CDISCPILOT01,VS,01-701-1130,149,WEIGHT,Weight,NA,173.0,LB,NA,NA,10,WEEK 16,2014-06-07,NA
CDISCPILOT01,VS,01-701-1130,150,WEIGHT,Weight,NA,NA,LB,NA,NA,11,WEEK 20,2014-07-02,NA
CDISCPILOT01,VS,01-701-1130,151,WEIGHT,Weight,NA,170.0,LB,NA,NA,12,WEEK 24,2014-08-02,NA
CDISCPILOT01,VS,01-701-1130,152,WEIGHT,Weight,NA,171.0,LB,NA,NA,13,WEEK 26,2014-08-16,NA
CDISCPILOT01,VS,01-701-1133,1,DIABP,Diastolic Blood Pressure,SUPINE,78,mmHg,NA,NA,1,SCREENING 1,2012-10-23,815
CDISCPILOT01,VS,01-701-1133,2,DIABP,Diastolic Blood Pressure,STANDING,80,mmHg,NA,NA,1,SCREENING 1,2012-10-23,816
CDISCPILOT01,VS,01-701-1133,3,DIABP,Diastolic Blood Pressure,STANDING,60,mmHg,NA,NA,1,SCREENING 1,2012-10-23,817
CDISCPILOT01,VS,01-701-1133,4,DIABP,Diastolic Blood Pressure,SUPINE,72,mmHg,NA,NA,2,SCREENING 2,2012-10-26,815
CDISCPILOT01,VS,01-701-1133,5,DIABP,Diastolic Blood Pressure,STANDING,65,mmHg,NA,NA,2,SCREENING 2,2012-10-26,816
CDISCPILOT01,VS,01-701-1133,6,DIABP,Diastolic Blood Pressure,STANDING,NA,mmHg,NA,NA,2,SCREENING 2,2012-10-26,817
CDISCPILOT01,VS,01-701-1133,7,DIABP,Diastolic Blood Pressure,SUPINE,59,mmHg,NA,Y,3,BASELINE,2012-10-28,815
CDISCPILOT01,VS,01-701-1133,8,DIABP,Diastolic Blood Pressure,STANDING,56,mmHg,NA,Y,3,BASELINE,2012-10-28,816
CDISCPILOT01,VS,01-701-1133,9,DIABP,Diastolic Blood Pressure,STANDING,54,mmHg,NA,Y,3,BASELINE,2012-10-28,817
CDISCPILOT01,VS,01-701-1133,10,DIABP,Diastolic Blood Pressure,SUPINE,56,mmHg,NA,NA,3.5,AMBUL ECG PLACEMENT,2012-11-11,815
CDISCPILOT01,VS,01-701-1133,11,DIABP,Diastolic Blood Pressure,STANDING,62,mmHg,NA,NA,3.5,AMBUL ECG PLACEMENT,2012-11-11,816
CDISCPILOT01,VS,01-701-1133,12,DIABP,Diastolic Blood Pressure,STANDING,60,mmHg,NA,NA,3.5,AMBUL ECG PLACEMENT,2012-11-11,817
CDISCPILOT01,VS,01-701-1133,13,DIABP,Diastolic Blood Pressure,SUPINE,56,mmHg,NA,NA,4,WEEK 2,2012-11-12,815
CDISCPILOT01,VS,01-701-1133,14,DIABP,Diastolic Blood Pressure,STANDING,59,mmHg,NA,NA,4,WEEK 2,2012-11-12,816
CDISCPILOT01,VS,01-701-1133,15,DIABP,Diastolic Blood Pressure,STANDING,64,mmHg,NA,NA,4,WEEK 2,2012-11-12,817
CDISCPILOT01,VS,01-701-1133,16,DIABP,Diastolic Blood Pressure,SUPINE,69,mmHg,NA,NA,5,WEEK 4,2012-11-26,815
CDISCPILOT01,VS,01-701-1133,17,DIABP,Diastolic Blood Pressure,STANDING,73,mmHg,NA,NA,5,WEEK 4,2012-11-26,816
CDISCPILOT01,VS,01-701-1133,18,DIABP,Diastolic Blood Pressure,STANDING,NA,mmHg,NA,NA,5,WEEK 4,2012-11-26,817
CDISCPILOT01,VS,01-701-1133,19,DIABP,Diastolic Blood Pressure,SUPINE,64,mmHg,NA,NA,6,AMBUL ECG REMOVAL,2012-11-28,815
CDISCPILOT01,VS,01-701-1133,20,DIABP,Diastolic Blood Pressure,STANDING,56,mmHg,NA,NA,6,AMBUL ECG REMOVAL,2012-11-28,816
CDISCPILOT01,VS,01-701-1133,21,DIABP,Diastolic Blood Pressure,STANDING,60,mmHg,NA,NA,6,AMBUL ECG REMOVAL,2012-11-28,817
CDISCPILOT01,VS,01-701-1133,22,DIABP,Diastolic Blood Pressure,SUPINE,55,mmHg,NA,NA,7,WEEK 6,2012-12-11,815
CDISCPILOT01,VS,01-701-1133,23,DIABP,Diastolic Blood Pressure,STANDING,55,mmHg,NA,NA,7,WEEK 6,2012-12-11,816
CDISCPILOT01,VS,01-701-1133,24,DIABP,Diastolic Blood Pressure,STANDING,NA,mmHg,NA,NA,7,WEEK 6,2012-12-11,817
CDISCPILOT01,VS,01-701-1133,25,DIABP,Diastolic Blood Pressure,SUPINE,59,mmHg,NA,NA,8,WEEK 8,2012-12-24,815
CDISCPILOT01,VS,01-701-1133,26,DIABP,Diastolic Blood Pressure,STANDING,56,mmHg,NA,NA,8,WEEK 8,2012-12-24,816
CDISCPILOT01,VS,01-701-1133,27,DIABP,Diastolic Blood Pressure,STANDING,56,mmHg,NA,NA,8,WEEK 8,2012-12-24,817
CDISCPILOT01,VS,01-701-1133,28,DIABP,Diastolic Blood Pressure,SUPINE,56,mmHg,NA,NA,9,WEEK 12,2013-01-22,815
CDISCPILOT01,VS,01-701-1133,29,DIABP,Diastolic Blood Pressure,STANDING,60,mmHg,NA,NA,9,WEEK 12,2013-01-22,816
CDISCPILOT01,VS,01-701-1133,30,DIABP,Diastolic Blood Pressure,STANDING,60,mmHg,NA,NA,9,WEEK 12,2013-01-22,817
CDISCPILOT01,VS,01-701-1133,31,DIABP,Diastolic Blood Pressure,SUPINE,56,mmHg,NA,NA,10,WEEK 16,2013-02-18,815
CDISCPILOT01,VS,01-701-1133,32,DIABP,Diastolic Blood Pressure,STANDING,60,mmHg,NA,NA,10,WEEK 16,2013-02-18,816
CDISCPILOT01,VS,01-701-1133,33,DIABP,Diastolic Blood Pressure,STANDING,NA,mmHg,NA,NA,10,WEEK 16,2013-02-18,817
CDISCPILOT01,VS,01-701-1133,34,DIABP,Diastolic Blood Pressure,SUPINE,77,mmHg,NA,NA,11,WEEK 20,2013-03-18,815
CDISCPILOT01,VS,01-701-1133,35,DIABP,Diastolic Blood Pressure,STANDING,58,mmHg,NA,NA,11,WEEK 20,2013-03-18,816
CDISCPILOT01,VS,01-701-1133,36,DIABP,Diastolic Blood Pressure,STANDING,64,mmHg,NA,NA,11,WEEK 20,2013-03-18,817
CDISCPILOT01,VS,01-701-1133,37,DIABP,Diastolic Blood Pressure,SUPINE,73,mmHg,NA,NA,12,WEEK 24,2013-04-18,815
CDISCPILOT01,VS,01-701-1133,38,DIABP,Diastolic Blood Pressure,STANDING,64,mmHg,NA,NA,12,WEEK 24,2013-04-18,816
CDISCPILOT01,VS,01-701-1133,39,DIABP,Diastolic Blood Pressure,STANDING,60,mmHg,NA,NA,12,WEEK 24,2013-04-18,817
CDISCPILOT01,VS,01-701-1133,40,DIABP,Diastolic Blood Pressure,SUPINE,66,mmHg,NA,NA,13,WEEK 26,2013-04-29,815
CDISCPILOT01,VS,01-701-1133,41,DIABP,Diastolic Blood Pressure,STANDING,60,mmHg,NA,NA,13,WEEK 26,2013-04-29,816
CDISCPILOT01,VS,01-701-1133,42,DIABP,Diastolic Blood Pressure,STANDING,60,mmHg,NA,NA,13,WEEK 26,2013-04-29,817
CDISCPILOT01,VS,01-701-1133,43,HEIGHT,Height,NA,64.0,IN,NA,NA,1,SCREENING 1,2012-10-23,NA
CDISCPILOT01,VS,01-701-1133,44,PULSE,Pulse Rate,SUPINE,52,BEATS/MIN,NA,NA,1,SCREENING 1,2012-10-23,815
CDISCPILOT01,VS,01-701-1133,45,PULSE,Pulse Rate,STANDING,64,BEATS/MIN,NA,NA,1,SCREENING 1,2012-10-23,816
CDISCPILOT01,VS,01-701-1133,46,PULSE,Pulse Rate,STANDING,61,BEATS/MIN,NA,NA,1,SCREENING 1,2012-10-23,817
CDISCPILOT01,VS,01-701-1133,47,PULSE,Pulse Rate,SUPINE,61,BEATS/MIN,NA,NA,2,SCREENING 2,2012-10-26,815
CDISCPILOT01,VS,01-701-1133,48,PULSE,Pulse Rate,STANDING,54,BEATS/MIN,NA,NA,2,SCREENING 2,2012-10-26,816
CDISCPILOT01,VS,01-701-1133,49,PULSE,Pulse Rate,STANDING,62,BEATS/MIN,NA,NA,2,SCREENING 2,2012-10-26,817
CDISCPILOT01,VS,01-701-1133,50,PULSE,Pulse Rate,SUPINE,70,BEATS/MIN,NA,Y,3,BASELINE,2012-10-28,815
CDISCPILOT01,VS,01-701-1133,51,PULSE,Pulse Rate,STANDING,73,BEATS/MIN,NA,Y,3,BASELINE,2012-10-28,816
CDISCPILOT01,VS,01-701-1133,52,PULSE,Pulse Rate,STANDING,NA,BEATS/MIN,NA,Y,3,BASELINE,2012-10-28,817
CDISCPILOT01,VS,01-701-1133,53,PULSE,Pulse Rate,SUPINE,65,BEATS/MIN,NA,NA,3.5,AMBUL ECG PLACEMENT,2012-11-11,815
CDISCPILOT01,VS,01-701-1133,54,PULSE,Pulse Rate,STANDING,74,BEATS/MIN,NA,NA,3.5,AMBUL ECG PLACEMENT,2012-11-11,816
CDISCPILOT01,VS,01-701-1133,55,PULSE,Pulse Rate,STANDING,75,BEATS/MIN,NA,NA,3.5,AMBUL ECG PLACEMENT,2012-11-11,817
CDISCPILOT01,VS,01-701-1133,56,PULSE,Pulse Rate,SUPINE,59,BEATS/MIN,NA,NA,4,WEEK 2,2012-11-12,815
CDISCPILOT01,VS,01-701-1133,57,PULSE,Pulse Rate,STANDING,64,BEATS/MIN,NA,NA,4,WEEK 2,2012-11-12,816
CDISCPILOT01,VS,01-701-1133,58,PULSE,Pulse Rate,STANDING,66,BEATS/MIN,NA,NA,4,WEEK 2,2012-11-12,817
CDISCPILOT01,VS,01-701-1133,59,PULSE,Pulse Rate,SUPINE,NA,BEATS/MIN,NA,NA,5,WEEK 4,2012-11-26,815
CDISCPILOT01,VS,01-701-1133,60,PULSE,Pulse Rate,STANDING,68,BEATS/MIN,NA,NA,5,WEEK 4,2012-11-26,816
CDISCPILOT01,VS,01-701-1133,61,PULSE,Pulse Rate,STANDING,61,BEATS/MIN,NA,NA,5,WEEK 4,2012-11-26,817
CDISCPILOT01,VS,01-701-1133,62,PULSE,Pulse Rate,SUPINE,66,BEATS/MIN,NA,NA,6,AMBUL ECG REMOVAL,2012-11-28,815
CDISCPILOT01,VS,01-701-1133,63,PULSE,Pulse Rate,STANDING,67,BEATS/MIN,NA,NA,6,AMBUL ECG REMOVAL,2012-11-28,816
CDISCPILOT01,VS,01-701-1133,64,PULSE,Pulse Rate,STANDING,NA,BEATS/MIN,NA,NA,6,AMBUL ECG REMOVAL,2012-11-28,817
CDISCPILOT01,VS,01-701-1133,65,PULSE,Pulse Rate,SUPINE,63,BEATS/MIN,NA,NA,7,WEEK 6,2012-12-11,815
CDISCPILOT01,VS,01-701-1133,66,PULSE,Pulse Rate,STANDING,61,BEATS/MIN,NA,NA,7,WEEK 6,2012-12-11,816
CDISCPILOT01,VS,01-701-1133,67,PULSE,Pulse Rate,STANDING,62,BEATS/MIN,NA,NA,7,WEEK 6,2012-12-11,817
CDISCPILOT01,VS,01-701-1133,68,PULSE,Pulse Rate,SUPINE,57,BEATS/MIN,NA,NA,8,WEEK 8,2012-12-24,815
CDISCPILOT01,VS,01-701-1133,69,PULSE,Pulse Rate,STANDING,61,BEATS/MIN,NA,NA,8,WEEK 8,2012-12-24,816
CDISCPILOT01,VS,01-701-1133,70,PULSE,Pulse Rate,STANDING,62,BEATS/MIN,NA,NA,8,WEEK 8,2012-12-24,817
CDISCPILOT01,VS,01-701-1133,71,PULSE,Pulse Rate,SUPINE,79,BEATS/MIN,NA,NA,9,WEEK 12,2013-01-22,815
CDISCPILOT01,VS,01-701-1133,72,PULSE,Pulse Rate,STANDING,88,BEATS/MIN,NA,NA,9,WEEK 12,2013-01-22,816
CDISCPILOT01,VS,01-701-1133,73,PULSE,Pulse Rate,STANDING,82,BEATS/MIN,NA,NA,9,WEEK 12,2013-01-22,817
CDISCPILOT01,VS,01-701-1133,74,PULSE,Pulse Rate,SUPINE,70,BEATS/MIN,NA,NA,10,WEEK 16,2013-02-18,815
CDISCPILOT01,VS,01-701-1133,75,PULSE,Pulse Rate,STANDING,72,BEATS/MIN,NA,NA,10,WEEK 16,2013-02-18,816
CDISCPILOT01,VS,01-701-1133,76,PULSE,Pulse Rate,STANDING,74,BEATS/MIN,NA,NA,10,WEEK 16,2013-02-18,817
CDISCPILOT01,VS,01-701-1133,77,PULSE,Pulse Rate,SUPINE,77,BEATS/MIN,NA,NA,11,WEEK 20,2013-03-18,815
CDISCPILOT01,VS,01-701-1133,78,PULSE,Pulse Rate,STANDING,81,BEATS/MIN,NA,NA,11,WEEK 20,2013-03-18,816
CDISCPILOT01,VS,01-701-1133,79,PULSE,Pulse Rate,STANDING,80,BEATS/MIN,NA,NA,11,WEEK 20,2013-03-18,817
CDISCPILOT01,VS,01-701-1133,80,PULSE,Pulse Rate,SUPINE,57,BEATS/MIN,NA,NA,12,WEEK 24,2013-04-18,815
CDISCPILOT01,VS,01-701-1133,81,PULSE,Pulse Rate,STANDING,61,BEATS/MIN,NA,NA,12,WEEK 24,2013-04-18,816
CDISCPILOT01,VS,01-701-1133,82,PULSE,Pulse Rate,STANDING,57,BEATS/MIN,NA,NA,12,WEEK 24,2013-04-18,817
CDISCPILOT01,VS,01-701-1133,83,PULSE,Pulse Rate,SUPINE,NA,BEATS/MIN,NA,NA,13,WEEK 26,2013-04-29,815
CDISCPILOT01,VS,01-701-1133,84,PULSE,Pulse Rate,STANDING,72,BEATS/MIN,NA,NA,13,WEEK 26,2013-04-29,816
CDISCPILOT01,VS,01-701-1133,85,PULSE,Pulse Rate,STANDING,72,BEATS/MIN,NA,NA,13,WEEK 26,2013-04-29,817
CDISCPILOT01,VS,01-701-1133,86,SYSBP,Systolic Blood Pressure,SUPINE,155,mmHg,NA,NA,1,SCREENING 1,2012-10-23,815
CDISCPILOT01,VS,01-701-1133,87,SYSBP,Systolic Blood Pressure,STANDING,146,mmHg,NA,NA,1,SCREENING 1,2012-10-23,816
CDISCPILOT01,VS,01-701-1133,88,SYSBP,Systolic Blood Pressure,STANDING,139,mmHg,NA,NA,1,SCREENING 1,2012-10-23,817
CDISCPILOT01,VS,01-701-1133,89,SYSBP,Systolic Blood Pressure,SUPINE,150,mmHg,NA,NA,2,SCREENING 2,2012-10-26,815
CDISCPILOT01,VS,01-701-1133,90,SYSBP,Systolic Blood Pressure,STANDING,152,mmHg,NA,NA,2,SCREENING 2,2012-10-26,816
CDISCPILOT01,VS,01-701-1133,91,SYSBP,Systolic Blood Pressure,STANDING,NA,mmHg,NA,NA,2,SCREENING 2,2012-10-26,817
CDISCPILOT01,VS,01-701-1133,92,SYSBP,Systolic Blood Pressure,SUPINE,160,mmHg,NA,Y,3,BASELINE,2012-10-28,815
CDISCPILOT01,VS,01-701-1133,93,SYSBP,Systolic Blood Pressure,STANDING,138,mmHg,NA,Y,3,BASELINE,2012-10-28,816
CDISCPILOT01,VS,01-701-1133,94,SYSBP,Systolic Blood Pressure,STANDING,154,mmHg,NA,Y,3,BASELINE,2012-10-28,817
CDISCPILOT01,VS,01-701-1133,95,SYSBP,Systolic Blood Pressure,SUPINE,137,mmHg,NA,NA,3.5,AMBUL ECG PLACEMENT,2012-11-11,815
CDISCPILOT01,VS,01-701-1133,96,SYSBP,Systolic Blood Pressure,STANDING,123,mmHg,NA,NA,3.5,AMBUL ECG PLACEMENT,2012-11-11,816
CDISCPILOT01,VS,01-701-1133,97,SYSBP,Systolic Blood Pressure,STANDING,124,mmHg,NA,NA,3.5,AMBUL ECG PLACEMENT,2012-11-11,817
CDISCPILOT01,VS,01-701-1133,98,SYSBP,Systolic Blood Pressure,SUPINE,NA,mmHg,NA,NA,4,WEEK 2,2012-11-12,815
CDISCPILOT01,VS,01-701-1133,99,SYSBP,Systolic Blood Pressure,STANDING,NA,mmHg,NA,NA,4,WEEK 2,2012-11-12,816
CDISCPILOT01,VS,01-701-1133,100,SYSBP,Systolic Blood Pressure,STANDING,144,mmHg,NA,NA,4,WEEK 2,2012-11-12,817
CDISCPILOT01,VS,01-701-1133,101,SYSBP,Systolic Blood Pressure,SUPINE,181,mmHg,NA,NA,5,WEEK 4,2012-11-26,815
CDISCPILOT01,VS,01-701-1133,102,SYSBP,Systolic Blood Pressure,STANDING,NA,mmHg,NA,NA,5,WEEK 4,2012-11-26,816
CDISCPILOT01,VS,01-701-1133,103,SYSBP,Systolic Blood Pressure,STANDING,160,mmHg,NA,NA,5,WEEK 4,2012-11-26,817
CDISCPILOT01,VS,01-701-1133,104,SYSBP,Systolic Blood Pressure,SUPINE,154,mmHg,NA,NA,6,AMBUL ECG REMOVAL,2012-11-28,815
CDISCPILOT01,VS,01-701-1133,105,SYSBP,Systolic Blood Pressure,STANDING,NA,mmHg,NA,NA,6,AMBUL ECG REMOVAL,2012-11-28,816
CDISCPILOT01,VS,01-701-1133,106,SYSBP,Systolic Blood Pressure,STANDING,146,mmHg,NA,NA,6,AMBUL ECG REMOVAL,2012-11-28,817
CDISCPILOT01,VS,01-701-1133,107,SYSBP,Systolic Blood Pressure,SUPINE,161,mmHg,NA,NA,7,WEEK 6,2012-12-11,815
CDISCPILOT01,VS,01-701-1133,108,SYSBP,Systolic Blood Pressure,STANDING,137,mmHg,NA,NA,7,WEEK 6,2012-12-11,816
CDISCPILOT01,VS,01-701-1133,109,SYSBP,Systolic Blood Pressure,STANDING,137,mmHg,NA,NA,7,WEEK 6,2012-12-11,817
CDISCPILOT01,VS,01-701-1133,110,SYSBP,Systolic Blood Pressure,SUPINE,145,mmHg,NA,NA,8,WEEK 8,2012-12-24,815
CDISCPILOT01,VS,01-701-1133,111,SYSBP,Systolic Blood Pressure,STANDING,154,mmHg,NA,NA,8,WEEK 8,2012-12-24,816
CDISCPILOT01,VS,01-701-1133,112,SYSBP,Systolic Blood Pressure,STANDING,146,mmHg,NA,NA,8,WEEK 8,2012-12-24,817
CDISCPILOT01,VS,01-701-1133,113,SYSBP,Systolic Blood Pressure,SUPINE,129,mmHg,NA,NA,9,WEEK 12,2013-01-22,815
CDISCPILOT01,VS,01-701-1133,114,SYSBP,Systolic Blood Pressure,STANDING,145,mmHg,NA,NA,9,WEEK 12,2013-01-22,816
CDISCPILOT01,VS,01-701-1133,115,SYSBP,Systolic Blood Pressure,STANDING,146,mmHg,NA,NA,9,WEEK 12,2013-01-22,817
CDISCPILOT01,VS,01-701-1133,116,SYSBP,Systolic Blood Pressure,SUPINE,169,mmHg,NA,NA,10,WEEK 16,2013-02-18,815
CDISCPILOT01,VS,01-701-1133,117,SYSBP,Systolic Blood Pressure,STANDING,153,mmHg,NA,NA,10,WEEK 16,2013-02-18,816
CDISCPILOT01,VS,01-701-1133,118,SYSBP,Systolic Blood Pressure,STANDING,144,mmHg,NA,NA,10,WEEK 16,2013-02-18,817
CDISCPILOT01,VS,01-701-1133,119,SYSBP,Systolic Blood Pressure,SUPINE,159,mmHg,NA,NA,11,WEEK 20,2013-03-18,815
CDISCPILOT01,VS,01-701-1133,120,SYSBP,Systolic Blood Pressure,STANDING,158,mmHg,NA,NA,11,WEEK 20,2013-03-18,816
CDISCPILOT01,VS,01-701-1133,121,SYSBP,Systolic Blood Pressure,STANDING,130,mmHg,NA,NA,11,WEEK 20,2013-03-18,817
CDISCPILOT01,VS,01-701-1133,122,SYSBP,Systolic Blood Pressure,SUPINE,147,mmHg,NA,NA,12,WEEK 24,2013-04-18,815
CDISCPILOT01,VS,01-701-1133,123,SYSBP,Systolic Blood Pressure,STANDING,137,mmHg,NA,NA,12,WEEK 24,2013-04-18,816
CDISCPILOT01,VS,01-701-1133,124,SYSBP,Systolic Blood Pressure,STANDING,NA,mmHg,NA,NA,12,WEEK 24,2013-04-18,817
CDISCPILOT01,VS,01-701-1133,125,SYSBP,Systolic Blood Pressure,SUPINE,NA,mmHg,NA,NA,13,WEEK 26,2013-04-29,815
CDISCPILOT01,VS,01-701-1133,126,SYSBP,Systolic Blood Pressure,STANDING,137,mmHg,NA,NA,13,WEEK 26,2013-04-29,816
CDISCPILOT01,VS,01-701-1133,127,SYSBP,Systolic Blood Pressure,STANDING,NA,mmHg,NA,NA,13,WEEK 26,2013-04-29,817
CDISCPILOT01,VS,01-701-1133,128,TEMP,Temperature,NA,97.7,F,NA,NA,1,SCREENING 1,2012-10-23,NA
CDISCPILOT01,VS,01-701-1133,129,TEMP,Temperature,NA,97.5,F,NA,NA,2,SCREENING 2,2012-10-26,NA
CDISCPILOT01,VS,01-701-1133,130,TEMP,Temperature,NA,97.5,F,NA,Y,3,BASELINE,2012-10-28,NA
CDISCPILOT01,VS,01-701-1133,131,TEMP,Temperature,NA,98.5,F,NA,NA,3.5,AMBUL ECG PLACEMENT,2012-11-11,NA
CDISCPILOT01,VS,01-701-1133,132,TEMP,Temperature,NA,97.8,F,NA,NA,4,WEEK 2,2012-11-12,NA
CDISCPILOT01,VS,01-701-1133,133,TEMP,Temperature,NA,97.4,F,NA,NA,5,WEEK 4,2012-11-26,NA
CDISCPILOT01,VS,01-701-1133,134,TEMP,Temperature,NA,97.5,F,NA,NA,6,AMBUL ECG REMOVAL,2012-11-28,NA
CDISCPILOT01,VS,01-701-1133,135,TEMP,Temperature,NA,96.6,F,NA,NA,7,WEEK 6,2012-12-11,NA
CDISCPILOT01,VS,01-701-1133,136,TEMP,Temperature,NA,97.8,F,NA,NA,8,WEEK 8,2012-12-24,NA
CDISCPILOT01,VS,01-701-1133,137,TEMP,Temperature,NA,98.4,F,NA,NA,9,WEEK 12,2013-01-22,NA
CDISCPILOT01,VS,01-701-1133,138,TEMP,Temperature,NA,98.3,F,NA,NA,10,WEEK 16,2013-02-18,NA
CDISCPILOT01,VS,01-701-1133,139,TEMP,Temperature,NA,97.6,F,NA,NA,11,WEEK 20,2013-03-18,NA
CDISCPILOT01,VS,01-701-1133,140,TEMP,Temperature,NA,098.9,F,NA,NA,12,WEEK 24,2013-04-18,NA
CDISCPILOT01,VS,01-701-1133,141,TEMP,Temperature,NA,98.5,F,NA,NA,13,WEEK 26,2013-04-29,NA
CDISCPILOT01,VS,01-701-1133,142,WEIGHT,Weight,NA,165.0,LB,NA,NA,1,SCREENING 1,2012-10-23,NA
CDISCPILOT01,VS,01-701-1133,143,WEIGHT,Weight,NA,164.0,LB,NA,Y,3,BASELINE,2012-10-28,NA
CDISCPILOT01,VS,01-701-1133,144,WEIGHT,Weight,NA,163.0,LB,NA,NA,4,WEEK 2,2012-11-12,NA
CDISCPILOT01,VS,01-701-1133,145,WEIGHT,Weight,NA,164.0,LB,NA,NA,5,WEEK 4,2012-11-26,NA
CDISCPILOT01,VS,01-701-1133,146,WEIGHT,Weight,NA,165.0,LB,NA,NA,7,WEEK 6,2012-12-11,NA
CDISCPILOT01,VS,01-701-1133,147,WEIGHT,Weight,NA,166.0,LB,NA,NA,8,WEEK 8,2012-12-24,NA
CDISCPILOT01,VS,01-701-1133,148,WEIGHT,Weight,NA,168.0,LB,NA,NA,9,WEEK 12,2013-01-22,NA
CDISCPILOT01,VS,01-701-1133,149,WEIGHT,Weight,NA,166.0,LB,NA,NA,10,WEEK 16,2013-02-18,NA
CDISCPILOT01,VS,01-701-1133,150,WEIGHT,Weight,NA,164,LB,NA,NA,11,WEEK 20,2013-03-18,NA
CDISCPILOT01,VS,01-701-1133,151,WEIGHT,Weight,NA,160.0,LB,NA,NA,12,WEEK 24,2013-04-18,NA
CDISCPILOT01,VS,01-701-1133,152,WEIGHT,Weight,NA,161.0,LB,NA,NA,13,WEEK 26,2013-04-29,NA
CDISCPILOT01,VS,01-701-1146,1,DIABP,Diastolic Blood Pressure,SUPINE,48,mmHg,NA,NA,1,SCREENING 1,2013-05-07,815
CDISCPILOT01,VS,01-701-1146,2,DIABP,Diastolic Blood Pressure,STANDING,56,mmHg,NA,NA,1,SCREENING 1,2013-05-07,816
CDISCPILOT01,VS,01-701-1146,3,DIABP,Diastolic Blood Pressure,STANDING,59,mmHg,NA,NA,1,SCREENING 1,2013-05-07,817
CDISCPILOT01,VS,01-701-1146,4,DIABP,Diastolic Blood Pressure,SUPINE,50,mmHg,NA,NA,2,SCREENING 2,2013-05-18,815
CDISCPILOT01,VS,01-701-1146,5,DIABP,Diastolic Blood Pressure,STANDING,54,mmHg,NA,NA,2,SCREENING 2,2013-05-18,816
CDISCPILOT01,VS,01-701-1146,6,DIABP,Diastolic Blood Pressure,STANDING,58,mmHg,NA,NA,2,SCREENING 2,2013-05-18,817
CDISCPILOT01,VS,01-701-1146,7,DIABP,Diastolic Blood Pressure,SUPINE,NA,mmHg,NA,Y,3,BASELINE,2013-05-20,815
CDISCPILOT01,VS,01-701-1146,8,DIABP,Diastolic Blood Pressure,STANDING,57,mmHg,NA,Y,3,BASELINE,2013-05-20,816
CDISCPILOT01,VS,01-701-1146,9,DIABP,Diastolic Blood Pressure,STANDING,51,mmHg,NA,Y,3,BASELINE,2013-05-20,817
CDISCPILOT01,VS,01-701-1146,10,DIABP,Diastolic Blood Pressure,SUPINE,51,mmHg,NA,NA,3.5,AMBUL ECG PLACEMENT,2013-06-02,815
CDISCPILOT01,VS,01-701-1146,11,DIABP,Diastolic Blood Pressure,STANDING,52,mmHg,NA,NA,3.5,AMBUL ECG PLACEMENT,2013-06-02,816
CDISCPILOT01,VS,01-701-1146,12,DIABP,Diastolic Blood Pressure,STANDING,62,mmHg,NA,NA,3.5,AMBUL ECG PLACEMENT,2013-06-02,817
CDISCPILOT01,VS,01-701-1146,13,DIABP,Diastolic Blood Pressure,SUPINE,57,mmHg,NA,NA,4,WEEK 2,2013-06-03,815
CDISCPILOT01,VS,01-701-1146,14,DIABP,Diastolic Blood Pressure,STANDING,43,mmHg,NA,NA,4,WEEK 2,2013-06-03,816
CDISCPILOT01,VS,01-701-1146,15,DIABP,Diastolic Blood Pressure,STANDING,NA,mmHg,NA,NA,4,WEEK 2,2013-06-03,817
CDISCPILOT01,VS,01-701-1146,16,DIABP,Diastolic Blood Pressure,SUPINE,55,mmHg,NA,NA,5,WEEK 4,2013-06-16,815
CDISCPILOT01,VS,01-701-1146,17,DIABP,Diastolic Blood Pressure,STANDING,59,mmHg,NA,NA,5,WEEK 4,2013-06-16,816
CDISCPILOT01,VS,01-701-1146,18,DIABP,Diastolic Blood Pressure,STANDING,56,mmHg,NA,NA,5,WEEK 4,2013-06-16,817
CDISCPILOT01,VS,01-701-1146,19,DIABP,Diastolic Blood Pressure,SUPINE,45,mmHg,NA,NA,6,AMBUL ECG REMOVAL,2013-06-18,815
CDISCPILOT01,VS,01-701-1146,20,DIABP,Diastolic Blood Pressure,STANDING,60,mmHg,NA,NA,6,AMBUL ECG REMOVAL,2013-06-18,816
CDISCPILOT01,VS,01-701-1146,21,DIABP,Diastolic Blood Pressure,STANDING,NA,mmHg,NA,NA,6,AMBUL ECG REMOVAL,2013-06-18,817
CDISCPILOT01,VS,01-701-1146,22,DIABP,Diastolic Blood Pressure,SUPINE,56,mmHg,NA,NA,7,WEEK 6,2013-06-30,815
CDISCPILOT01,VS,01-701-1146,23,DIABP,Diastolic Blood Pressure,STANDING,60,mmHg,NA,NA,7,WEEK 6,2013-06-30,816
CDISCPILOT01,VS,01-701-1146,24,DIABP,Diastolic Blood Pressure,STANDING,54,mmHg,NA,NA,7,WEEK 6,2013-06-30,817
CDISCPILOT01,VS,01-701-1146,25,HEIGHT,Height,NA,58.0,IN,NA,NA,1,SCREENING 1,2013-05-07,NA
CDISCPILOT01,VS,01-701-1146,26,PULSE,Pulse Rate,SUPINE,NA,BEATS/MIN,NA,NA,1,SCREENING 1,2013-05-07,815
CDISCPILOT01,VS,01-701-1146,27,PULSE,Pulse Rate,STANDING,76,BEATS/MIN,NA,NA,1,SCREENING 1,2013-05-07,816
CDISCPILOT01,VS,01-701-1146,28,PULSE,Pulse Rate,STANDING,79,BEATS/MIN,NA,NA,1,SCREENING 1,2013-05-07,817
CDISCPILOT01,VS,01-701-1146,29,PULSE,Pulse Rate,SUPINE,62,BEATS/MIN,NA,NA,2,SCREENING 2,2013-05-18,815
CDISCPILOT01,VS,01-701-1146,30,PULSE,Pulse Rate,STANDING,80,BEATS/MIN,NA,NA,2,SCREENING 2,2013-05-18,816
CDISCPILOT01,VS,01-701-1146,31,PULSE,Pulse Rate,STANDING,NA,BEATS/MIN,NA,NA,2,SCREENING 2,2013-05-18,817
CDISCPILOT01,VS,01-701-1146,32,PULSE,Pulse Rate,SUPINE,67,BEATS/MIN,NA,Y,3,BASELINE,2013-05-20,815
CDISCPILOT01,VS,01-701-1146,33,PULSE,Pulse Rate,STANDING,72,BEATS/MIN,NA,Y,3,BASELINE,2013-05-20,816
CDISCPILOT01,VS,01-701-1146,34,PULSE,Pulse Rate,STANDING,68,BEATS/MIN,NA,Y,3,BASELINE,2013-05-20,817
CDISCPILOT01,VS,01-701-1146,35,PULSE,Pulse Rate,SUPINE,65,BEATS/MIN,NA,NA,3.5,AMBUL ECG PLACEMENT,2013-06-02,815
CDISCPILOT01,VS,01-701-1146,36,PULSE,Pulse Rate,STANDING,70,BEATS/MIN,NA,NA,3.5,AMBUL ECG PLACEMENT,2013-06-02,816
CDISCPILOT01,VS,01-701-1146,37,PULSE,Pulse Rate,STANDING,67,BEATS/MIN,NA,NA,3.5,AMBUL ECG PLACEMENT,2013-06-02,817
CDISCPILOT01,VS,01-701-1146,38,PULSE,Pulse Rate,SUPINE,62,BEATS/MIN,NA,NA,4,WEEK 2,2013-06-03,815
CDISCPILOT01,VS,01-701-1146,39,PULSE,Pulse Rate,STANDING,70,BEATS/MIN,NA,NA,4,WEEK 2,2013-06-03,816
CDISCPILOT01,VS,01-701-1146,40,PULSE,Pulse Rate,STANDING,69,BEATS/MIN,NA,NA,4,WEEK 2,2013-06-03,817
CDISCPILOT01,VS,01-701-1146,41,PULSE,Pulse Rate,SUPINE,68,BEATS/MIN,NA,NA,5,WEEK 4,2013-06-16,815
CDISCPILOT01,VS,01-701-1146,42,PULSE,Pulse Rate,STANDING,73,BEATS/MIN,NA,NA,5,WEEK 4,2013-06-16,816
CDISCPILOT01,VS,01-701-1146,43,PULSE,Pulse Rate,STANDING,73,BEATS/MIN,NA,NA,5,WEEK 4,2013-06-16,817
CDISCPILOT01,VS,01-701-1146,44,PULSE,Pulse Rate,SUPINE,68,BEATS/MIN,NA,NA,6,AMBUL ECG REMOVAL,2013-06-18,815
CDISCPILOT01,VS,01-701-1146,45,PULSE,Pulse Rate,STANDING,72,BEATS/MIN,NA,NA,6,AMBUL ECG REMOVAL,2013-06-18,816
CDISCPILOT01,VS,01-701-1146,46,PULSE,Pulse Rate,STANDING,NA,BEATS/MIN,NA,NA,6,AMBUL ECG REMOVAL,2013-06-18,817
CDISCPILOT01,VS,01-701-1146,47,PULSE,Pulse Rate,SUPINE,52,BEATS/MIN,NA,NA,7,WEEK 6,2013-06-30,815
CDISCPILOT01,VS,01-701-1146,48,PULSE,Pulse Rate,STANDING,60,BEATS/MIN,NA,NA,7,WEEK 6,2013-06-30,816
CDISCPILOT01,VS,01-701-1146,49,PULSE,Pulse Rate,STANDING,NA,BEATS/MIN,NA,NA,7,WEEK 6,2013-06-30,817
CDISCPILOT01,VS,01-701-1146,50,SYSBP,Systolic Blood Pressure,SUPINE,114,mmHg,NA,NA,1,SCREENING 1,2013-05-07,815
CDISCPILOT01,VS,01-701-1146,51,SYSBP,Systolic Blood Pressure,STANDING,122,mmHg,NA,NA,1,SCREENING 1,2013-05-07,816
CDISCPILOT01,VS,01-701-1146,52,SYSBP,Systolic Blood Pressure,STANDING,122,mmHg,NA,NA,1,SCREENING 1,2013-05-07,817
CDISCPILOT01,VS,01-701-1146,53,SYSBP,Systolic Blood Pressure,SUPINE,114,mmHg,NA,NA,2,SCREENING 2,2013-05-18,815
CDISCPILOT01,VS,01-701-1146,54,SYSBP,Systolic Blood Pressure,STANDING,107,mmHg,NA,NA,2,SCREENING 2,2013-05-18,816
CDISCPILOT01,VS,01-701-1146,55,SYSBP,Systolic Blood Pressure,STANDING,108,mmHg,NA,NA,2,SCREENING 2,2013-05-18,817
CDISCPILOT01,VS,01-701-1146,56,SYSBP,Systolic Blood Pressure,SUPINE,128,mmHg,NA,Y,3,BASELINE,2013-05-20,815
CDISCPILOT01,VS,01-701-1146,57,SYSBP,Systolic Blood Pressure,STANDING,124,mmHg,NA,Y,3,BASELINE,2013-05-20,816
CDISCPILOT01,VS,01-701-1146,58,SYSBP,Systolic Blood Pressure,STANDING,115,mmHg,NA,Y,3,BASELINE,2013-05-20,817
CDISCPILOT01,VS,01-701-1146,59,SYSBP,Systolic Blood Pressure,SUPINE,113,mmHg,NA,NA,3.5,AMBUL ECG PLACEMENT,2013-06-02,815
CDISCPILOT01,VS,01-701-1146,60,SYSBP,Systolic Blood Pressure,STANDING,NA,mmHg,NA,NA,3.5,AMBUL ECG PLACEMENT,2013-06-02,816
CDISCPILOT01,VS,01-701-1146,61,SYSBP,Systolic Blood Pressure,STANDING,121,mmHg,NA,NA,3.5,AMBUL ECG PLACEMENT,2013-06-02,817
CDISCPILOT01,VS,01-701-1146,62,SYSBP,Systolic Blood Pressure,SUPINE,108,mmHg,NA,NA,4,WEEK 2,2013-06-03,815
CDISCPILOT01,VS,01-701-1146,63,SYSBP,Systolic Blood Pressure,STANDING,NA,mmHg,NA,NA,4,WEEK 2,2013-06-03,816
CDISCPILOT01,VS,01-701-1146,64,SYSBP,Systolic Blood Pressure,STANDING,116,mmHg,NA,NA,4,WEEK 2,2013-06-03,817
CDISCPILOT01,VS,01-701-1146,65,SYSBP,Systolic Blood Pressure,SUPINE,121,mmHg,NA,NA,5,WEEK 4,2013-06-16,815
CDISCPILOT01,VS,01-701-1146,66,SYSBP,Systolic Blood Pressure,STANDING,129,mmHg,NA,NA,5,WEEK 4,2013-06-16,816
CDISCPILOT01,VS,01-701-1146,67,SYSBP,Systolic Blood Pressure,STANDING,122,mmHg,NA,NA,5,WEEK 4,2013-06-16,817
CDISCPILOT01,VS,01-701-1146,68,SYSBP,Systolic Blood Pressure,SUPINE,108,mmHg,NA,NA,6,AMBUL ECG REMOVAL,2013-06-18,815
CDISCPILOT01,VS,01-701-1146,69,SYSBP,Systolic Blood Pressure,STANDING,115,mmHg,NA,NA,6,AMBUL ECG REMOVAL,2013-06-18,816
CDISCPILOT01,VS,01-701-1146,70,SYSBP,Systolic Blood Pressure,STANDING,122,mmHg,NA,NA,6,AMBUL ECG REMOVAL,2013-06-18,817
CDISCPILOT01,VS,01-701-1146,71,SYSBP,Systolic Blood Pressure,SUPINE,115,mmHg,NA,NA,7,WEEK 6,2013-06-30,815
CDISCPILOT01,VS,01-701-1146,72,SYSBP,Systolic Blood Pressure,STANDING,107,mmHg,NA,NA,7,WEEK 6,2013-06-30,816
CDISCPILOT01,VS,01-701-1146,73,SYSBP,Systolic Blood Pressure,STANDING,116,mmHg,NA,NA,7,WEEK 6,2013-06-30,817
CDISCPILOT01,VS,01-701-1146,74,TEMP,Temperature,NA,99.2,F,NA,NA,1,SCREENING 1,2013-05-07,NA
CDISCPILOT01,VS,01-701-1146,75,TEMP,Temperature,NA,97.3,F,NA,NA,2,SCREENING 2,2013-05-18,NA
CDISCPILOT01,VS,01-701-1146,76,TEMP,Temperature,NA,97.6,F,NA,Y,3,BASELINE,2013-05-20,NA
CDISCPILOT01,VS,01-701-1146,77,TEMP,Temperature,NA,97.8,F,NA,NA,3.5,AMBUL ECG PLACEMENT,2013-06-02,NA
CDISCPILOT01,VS,01-701-1146,78,TEMP,Temperature,NA,97.9,F,NA,NA,4,WEEK 2,2013-06-03,NA
CDISCPILOT01,VS,01-701-1146,79,TEMP,Temperature,NA,97.4,F,NA,NA,5,WEEK 4,2013-06-16,NA
CDISCPILOT01,VS,01-701-1146,80,TEMP,Temperature,NA,98.6,F,NA,NA,6,AMBUL ECG REMOVAL,2013-06-18,NA
CDISCPILOT01,VS,01-701-1146,81,TEMP,Temperature,NA,98.1,F,NA,NA,7,WEEK 6,2013-06-30,NA
CDISCPILOT01,VS,01-701-1146,82,WEIGHT,Weight,NA,119.0,LB,NA,NA,1,SCREENING 1,2013-05-07,NA
CDISCPILOT01,VS,01-701-1146,83,WEIGHT,Weight,NA,119.0,LB,NA,Y,3,BASELINE,2013-05-20,NA
CDISCPILOT01,VS,01-701-1146,84,WEIGHT,Weight,NA,120.0,LB,NA,NA,4,WEEK 2,2013-06-03,NA
CDISCPILOT01,VS,01-701-1146,85,WEIGHT,Weight,NA,120.0,LB,NA,NA,5,WEEK 4,2013-06-16,NA
CDISCPILOT01,VS,01-701-1146,86,WEIGHT,Weight,NA,118.5,LB,NA,NA,7,WEEK 6,2013-06-30,NA
CDISCPILOT01,VS,01-701-1148,1,DIABP,Diastolic Blood Pressure,SUPINE,69,mmHg,NA,NA,1,SCREENING 1,2013-08-14,815
CDISCPILOT01,VS,01-701-1148,2,DIABP,Diastolic Blood Pressure,STANDING,60,mmHg,NA,NA,1,SCREENING 1,2013-08-14,816
CDISCPILOT01,VS,01-701-1148,3,DIABP,Diastolic Blood Pressure,STANDING,68,mmHg,NA,NA,1,SCREENING 1,2013-08-14,817
CDISCPILOT01,VS,01-701-1148,4,DIABP,Diastolic Blood Pressure,SUPINE,76,mmHg,NA,NA,2,SCREENING 2,2013-08-21,815
CDISCPILOT01,VS,01-701-1148,5,DIABP,Diastolic Blood Pressure,STANDING,68,mmHg,NA,NA,2,SCREENING 2,2013-08-21,816
CDISCPILOT01,VS,01-701-1148,6,DIABP,Diastolic Blood Pressure,STANDING,69,mmHg,NA,NA,2,SCREENING 2,2013-08-21,817
CDISCPILOT01,VS,01-701-1148,7,DIABP,Diastolic Blood Pressure,SUPINE,70,mmHg,NA,Y,3,BASELINE,2013-08-23,815
CDISCPILOT01,VS,01-701-1148,8,DIABP,Diastolic Blood Pressure,STANDING,58,mmHg,NA,Y,3,BASELINE,2013-08-23,816
CDISCPILOT01,VS,01-701-1148,9,DIABP,Diastolic Blood Pressure,STANDING,76,mmHg,NA,Y,3,BASELINE,2013-08-23,817
CDISCPILOT01,VS,01-701-1148,10,DIABP,Diastolic Blood Pressure,SUPINE,80,mmHg,NA,NA,3.5,AMBUL ECG PLACEMENT,2013-09-04,815
CDISCPILOT01,VS,01-701-1148,11,DIABP,Diastolic Blood Pressure,STANDING,NA,mmHg,NA,NA,3.5,AMBUL ECG PLACEMENT,2013-09-04,816
CDISCPILOT01,VS,01-701-1148,12,DIABP,Diastolic Blood Pressure,STANDING,NA,mmHg,NA,NA,3.5,AMBUL ECG PLACEMENT,2013-09-04,817
CDISCPILOT01,VS,01-701-1148,13,DIABP,Diastolic Blood Pressure,SUPINE,69,mmHg,NA,NA,4,WEEK 2,2013-09-05,815
CDISCPILOT01,VS,01-701-1148,14,DIABP,Diastolic Blood Pressure,STANDING,66,mmHg,NA,NA,4,WEEK 2,2013-09-05,816
CDISCPILOT01,VS,01-701-1148,15,DIABP,Diastolic Blood Pressure,STANDING,73,mmHg,NA,NA,4,WEEK 2,2013-09-05,817
CDISCPILOT01,VS,01-701-1148,16,DIABP,Diastolic Blood Pressure,SUPINE,NA,mmHg,NA,NA,5,WEEK 4,2013-09-19,815
CDISCPILOT01,VS,01-701-1148,17,DIABP,Diastolic Blood Pressure,STANDING,65,mmHg,NA,NA,5,WEEK 4,2013-09-19,816
CDISCPILOT01,VS,01-701-1148,18,DIABP,Diastolic Blood Pressure,STANDING,61,mmHg,NA,NA,5,WEEK 4,2013-09-19,817
CDISCPILOT01,VS,01-701-1148,19,DIABP,Diastolic Blood Pressure,SUPINE,76,mmHg,NA,NA,6,AMBUL ECG REMOVAL,2013-09-21,815
CDISCPILOT01,VS,01-701-1148,20,DIABP,Diastolic Blood Pressure,STANDING,77,mmHg,NA,NA,6,AMBUL ECG REMOVAL,2013-09-21,816
CDISCPILOT01,VS,01-701-1148,21,DIABP,Diastolic Blood Pressure,STANDING,79,mmHg,NA,NA,6,AMBUL ECG REMOVAL,2013-09-21,817
CDISCPILOT01,VS,01-701-1148,22,DIABP,Diastolic Blood Pressure,SUPINE,76,mmHg,NA,NA,7,WEEK 6,2013-10-03,815
CDISCPILOT01,VS,01-701-1148,23,DIABP,Diastolic Blood Pressure,STANDING,60,mmHg,NA,NA,7,WEEK 6,2013-10-03,816
CDISCPILOT01,VS,01-701-1148,24,DIABP,Diastolic Blood Pressure,STANDING,70,mmHg,NA,NA,7,WEEK 6,2013-10-03,817
CDISCPILOT01,VS,01-701-1148,25,DIABP,Diastolic Blood Pressure,SUPINE,75,mmHg,NA,NA,8,WEEK 8,2013-10-18,815
CDISCPILOT01,VS,01-701-1148,26,DIABP,Diastolic Blood Pressure,STANDING,75,mmHg,NA,NA,8,WEEK 8,2013-10-18,816
CDISCPILOT01,VS,01-701-1148,27,DIABP,Diastolic Blood Pressure,STANDING,NA,mmHg,NA,NA,8,WEEK 8,2013-10-18,817
CDISCPILOT01,VS,01-701-1148,28,DIABP,Diastolic Blood Pressure,SUPINE,NA,mmHg,NA,NA,9,WEEK 12,2013-11-17,815
CDISCPILOT01,VS,01-701-1148,29,DIABP,Diastolic Blood Pressure,STANDING,69,mmHg,NA,NA,9,WEEK 12,2013-11-17,816
CDISCPILOT01,VS,01-701-1148,30,DIABP,Diastolic Blood Pressure,STANDING,69,mmHg,NA,NA,9,WEEK 12,2013-11-17,817
CDISCPILOT01,VS,01-701-1148,31,DIABP,Diastolic Blood Pressure,SUPINE,68,mmHg,NA,NA,10,WEEK 16,2013-12-13,815
CDISCPILOT01,VS,01-701-1148,32,DIABP,Diastolic Blood Pressure,STANDING,73,mmHg,NA,NA,10,WEEK 16,2013-12-13,816
CDISCPILOT01,VS,01-701-1148,33,DIABP,Diastolic Blood Pressure,STANDING,76,mmHg,NA,NA,10,WEEK 16,2013-12-13,817
CDISCPILOT01,VS,01-701-1148,34,DIABP,Diastolic Blood Pressure,SUPINE,69,mmHg,NA,NA,11,WEEK 20,2014-01-10,815
CDISCPILOT01,VS,01-701-1148,35,DIABP,Diastolic Blood Pressure,STANDING,63,mmHg,NA,NA,11,WEEK 20,2014-01-10,816
CDISCPILOT01,VS,01-701-1148,36,DIABP,Diastolic Blood Pressure,STANDING,69,mmHg,NA,NA,11,WEEK 20,2014-01-10,817
CDISCPILOT01,VS,01-701-1148,37,DIABP,Diastolic Blood Pressure,SUPINE,64,mmHg,NA,NA,12,WEEK 24,2014-02-08,815
CDISCPILOT01,VS,01-701-1148,38,DIABP,Diastolic Blood Pressure,STANDING,73,mmHg,NA,NA,12,WEEK 24,2014-02-08,816
CDISCPILOT01,VS,01-701-1148,39,DIABP,Diastolic Blood Pressure,STANDING,73,mmHg,NA,NA,12,WEEK 24,2014-02-08,817
CDISCPILOT01,VS,01-701-1148,40,DIABP,Diastolic Blood Pressure,SUPINE,68,mmHg,NA,NA,13,WEEK 26,2014-02-20,815
CDISCPILOT01,VS,01-701-1148,41,DIABP,Diastolic Blood Pressure,STANDING,73,mmHg,NA,NA,13,WEEK 26,2014-02-20,816
CDISCPILOT01,VS,01-701-1148,42,DIABP,Diastolic Blood Pressure,STANDING,68,mmHg,NA,NA,13,WEEK 26,2014-02-20,817
CDISCPILOT01,VS,01-701-1148,43,HEIGHT,Height,NA,NA,IN,NA,NA,1,SCREENING 1,2013-08-14,NA
CDISCPILOT01,VS,01-701-1148,44,PULSE,Pulse Rate,SUPINE,50,BEATS/MIN,NA,NA,1,SCREENING 1,2013-08-14,815
CDISCPILOT01,VS,01-701-1148,45,PULSE,Pulse Rate,STANDING,66,BEATS/MIN,NA,NA,1,SCREENING 1,2013-08-14,816
CDISCPILOT01,VS,01-701-1148,46,PULSE,Pulse Rate,STANDING,69,BEATS/MIN,NA,NA,1,SCREENING 1,2013-08-14,817
CDISCPILOT01,VS,01-701-1148,47,PULSE,Pulse Rate,SUPINE,54,BEATS/MIN,NA,NA,2,SCREENING 2,2013-08-21,815
CDISCPILOT01,VS,01-701-1148,48,PULSE,Pulse Rate,STANDING,57,BEATS/MIN,NA,NA,2,SCREENING 2,2013-08-21,816
CDISCPILOT01,VS,01-701-1148,49,PULSE,Pulse Rate,STANDING,67,BEATS/MIN,NA,NA,2,SCREENING 2,2013-08-21,817
CDISCPILOT01,VS,01-701-1148,50,PULSE,Pulse Rate,SUPINE,58,BEATS/MIN,NA,Y,3,BASELINE,2013-08-23,815
CDISCPILOT01,VS,01-701-1148,51,PULSE,Pulse Rate,STANDING,73,BEATS/MIN,NA,Y,3,BASELINE,2013-08-23,816
CDISCPILOT01,VS,01-701-1148,52,PULSE,Pulse Rate,STANDING,70,BEATS/MIN,NA,Y,3,BASELINE,2013-08-23,817
CDISCPILOT01,VS,01-701-1148,53,PULSE,Pulse Rate,SUPINE,75,BEATS/MIN,NA,NA,3.5,AMBUL ECG PLACEMENT,2013-09-04,815
CDISCPILOT01,VS,01-701-1148,54,PULSE,Pulse Rate,STANDING,80,BEATS/MIN,NA,NA,3.5,AMBUL ECG PLACEMENT,2013-09-04,816
CDISCPILOT01,VS,01-701-1148,55,PULSE,Pulse Rate,STANDING,80,BEATS/MIN,NA,NA,3.5,AMBUL ECG PLACEMENT,2013-09-04,817
CDISCPILOT01,VS,01-701-1148,56,PULSE,Pulse Rate,SUPINE,74,BEATS/MIN,NA,NA,4,WEEK 2,2013-09-05,815
CDISCPILOT01,VS,01-701-1148,57,PULSE,Pulse Rate,STANDING,86,BEATS/MIN,NA,NA,4,WEEK 2,2013-09-05,816
CDISCPILOT01,VS,01-701-1148,58,PULSE,Pulse Rate,STANDING,81,BEATS/MIN,NA,NA,4,WEEK 2,2013-09-05,817
CDISCPILOT01,VS,01-701-1148,59,PULSE,Pulse Rate,SUPINE,72,BEATS/MIN,NA,NA,5,WEEK 4,2013-09-19,815
CDISCPILOT01,VS,01-701-1148,60,PULSE,Pulse Rate,STANDING,83,BEATS/MIN,NA,NA,5,WEEK 4,2013-09-19,816
CDISCPILOT01,VS,01-701-1148,61,PULSE,Pulse Rate,STANDING,NA,BEATS/MIN,NA,NA,5,WEEK 4,2013-09-19,817
CDISCPILOT01,VS,01-701-1148,62,PULSE,Pulse Rate,SUPINE,70,BEATS/MIN,NA,NA,6,AMBUL ECG REMOVAL,2013-09-21,815
CDISCPILOT01,VS,01-701-1148,63,PULSE,Pulse Rate,STANDING,76,BEATS/MIN,NA,NA,6,AMBUL ECG REMOVAL,2013-09-21,816
CDISCPILOT01,VS,01-701-1148,64,PULSE,Pulse Rate,STANDING,NA,BEATS/MIN,NA,NA,6,AMBUL ECG REMOVAL,2013-09-21,817
CDISCPILOT01,VS,01-701-1148,65,PULSE,Pulse Rate,SUPINE,61,BEATS/MIN,NA,NA,7,WEEK 6,2013-10-03,815
CDISCPILOT01,VS,01-701-1148,66,PULSE,Pulse Rate,STANDING,73,BEATS/MIN,NA,NA,7,WEEK 6,2013-10-03,816
CDISCPILOT01,VS,01-701-1148,67,PULSE,Pulse Rate,STANDING,74,BEATS/MIN,NA,NA,7,WEEK 6,2013-10-03,817
CDISCPILOT01,VS,01-701-1148,68,PULSE,Pulse Rate,SUPINE,70,BEATS/MIN,NA,NA,8,WEEK 8,2013-10-18,815
CDISCPILOT01,VS,01-701-1148,69,PULSE,Pulse Rate,STANDING,80,BEATS/MIN,NA,NA,8,WEEK 8,2013-10-18,816
CDISCPILOT01,VS,01-701-1148,70,PULSE,Pulse Rate,STANDING,77,BEATS/MIN,NA,NA,8,WEEK 8,2013-10-18,817
CDISCPILOT01,VS,01-701-1148,71,PULSE,Pulse Rate,SUPINE,57,BEATS/MIN,NA,NA,9,WEEK 12,2013-11-17,815
CDISCPILOT01,VS,01-701-1148,72,PULSE,Pulse Rate,STANDING,65,BEATS/MIN,NA,NA,9,WEEK 12,2013-11-17,816
CDISCPILOT01,VS,01-701-1148,73,PULSE,Pulse Rate,STANDING,70,BEATS/MIN,NA,NA,9,WEEK 12,2013-11-17,817
CDISCPILOT01,VS,01-701-1148,74,PULSE,Pulse Rate,SUPINE,60,BEATS/MIN,NA,NA,10,WEEK 16,2013-12-13,815
CDISCPILOT01,VS,01-701-1148,75,PULSE,Pulse Rate,STANDING,78,BEATS/MIN,NA,NA,10,WEEK 16,2013-12-13,816
CDISCPILOT01,VS,01-701-1148,76,PULSE,Pulse Rate,STANDING,77,BEATS/MIN,NA,NA,10,WEEK 16,2013-12-13,817
CDISCPILOT01,VS,01-701-1148,77,PULSE,Pulse Rate,SUPINE,52,BEATS/MIN,NA,NA,11,WEEK 20,2014-01-10,815
CDISCPILOT01,VS,01-701-1148,78,PULSE,Pulse Rate,STANDING,59,BEATS/MIN,NA,NA,11,WEEK 20,2014-01-10,816
CDISCPILOT01,VS,01-701-1148,79,PULSE,Pulse Rate,STANDING,59,BEATS/MIN,NA,NA,11,WEEK 20,2014-01-10,817
CDISCPILOT01,VS,01-701-1148,80,PULSE,Pulse Rate,SUPINE,59,BEATS/MIN,NA,NA,12,WEEK 24,2014-02-08,815
CDISCPILOT01,VS,01-701-1148,81,PULSE,Pulse Rate,STANDING,74,BEATS/MIN,NA,NA,12,WEEK 24,2014-02-08,816
CDISCPILOT01,VS,01-701-1148,82,PULSE,Pulse Rate,STANDING,76,BEATS/MIN,NA,NA,12,WEEK 24,2014-02-08,817
CDISCPILOT01,VS,01-701-1148,83,PULSE,Pulse Rate,SUPINE,NA,BEATS/MIN,NA,NA,13,WEEK 26,2014-02-20,815
CDISCPILOT01,VS,01-701-1148,84,PULSE,Pulse Rate,STANDING,77,BEATS/MIN,NA,NA,13,WEEK 26,2014-02-20,816
CDISCPILOT01,VS,01-701-1148,85,PULSE,Pulse Rate,STANDING,75,BEATS/MIN,NA,NA,13,WEEK 26,2014-02-20,817
CDISCPILOT01,VS,01-701-1148,86,SYSBP,Systolic Blood Pressure,SUPINE,116,mmHg,NA,NA,1,SCREENING 1,2013-08-14,815
CDISCPILOT01,VS,01-701-1148,87,SYSBP,Systolic Blood Pressure,STANDING,NA,mmHg,NA,NA,1,SCREENING 1,2013-08-14,816
CDISCPILOT01,VS,01-701-1148,88,SYSBP,Systolic Blood Pressure,STANDING,107,mmHg,NA,NA,1,SCREENING 1,2013-08-14,817
CDISCPILOT01,VS,01-701-1148,89,SYSBP,Systolic Blood Pressure,SUPINE,115,mmHg,NA,NA,2,SCREENING 2,2013-08-21,815
CDISCPILOT01,VS,01-701-1148,90,SYSBP,Systolic Blood Pressure,STANDING,NA,mmHg,NA,NA,2,SCREENING 2,2013-08-21,816
CDISCPILOT01,VS,01-701-1148,91,SYSBP,Systolic Blood Pressure,STANDING,100,mmHg,NA,NA,2,SCREENING 2,2013-08-21,817
CDISCPILOT01,VS,01-701-1148,92,SYSBP,Systolic Blood Pressure,SUPINE,116,mmHg,NA,Y,3,BASELINE,2013-08-23,815
CDISCPILOT01,VS,01-701-1148,93,SYSBP,Systolic Blood Pressure,STANDING,116,mmHg,NA,Y,3,BASELINE,2013-08-23,816
CDISCPILOT01,VS,01-701-1148,94,SYSBP,Systolic Blood Pressure,STANDING,122,mmHg,NA,Y,3,BASELINE,2013-08-23,817
CDISCPILOT01,VS,01-701-1148,95,SYSBP,Systolic Blood Pressure,SUPINE,132,mmHg,NA,NA,3.5,AMBUL ECG PLACEMENT,2013-09-04,815
CDISCPILOT01,VS,01-701-1148,96,SYSBP,Systolic Blood Pressure,STANDING,NA,mmHg,NA,NA,3.5,AMBUL ECG PLACEMENT,2013-09-04,816
CDISCPILOT01,VS,01-701-1148,97,SYSBP,Systolic Blood Pressure,STANDING,117,mmHg,NA,NA,3.5,AMBUL ECG PLACEMENT,2013-09-04,817
CDISCPILOT01,VS,01-701-1148,98,SYSBP,Systolic Blood Pressure,SUPINE,NA,mmHg,NA,NA,4,WEEK 2,2013-09-05,815
CDISCPILOT01,VS,01-701-1148,99,SYSBP,Systolic Blood Pressure,STANDING,113,mmHg,NA,NA,4,WEEK 2,2013-09-05,816
CDISCPILOT01,VS,01-701-1148,100,SYSBP,Systolic Blood Pressure,STANDING,115,mmHg,NA,NA,4,WEEK 2,2013-09-05,817
CDISCPILOT01,VS,01-701-1148,101,SYSBP,Systolic Blood Pressure,SUPINE,115,mmHg,NA,NA,5,WEEK 4,2013-09-19,815
CDISCPILOT01,VS,01-701-1148,102,SYSBP,Systolic Blood Pressure,STANDING,NA,mmHg,NA,NA,5,WEEK 4,2013-09-19,816
CDISCPILOT01,VS,01-701-1148,103,SYSBP,Systolic Blood Pressure,STANDING,NA,mmHg,NA,NA,5,WEEK 4,2013-09-19,817
CDISCPILOT01,VS,01-701-1148,104,SYSBP,Systolic Blood Pressure,SUPINE,123,mmHg,NA,NA,6,AMBUL ECG REMOVAL,2013-09-21,815
CDISCPILOT01,VS,01-701-1148,105,SYSBP,Systolic Blood Pressure,STANDING,116,mmHg,NA,NA,6,AMBUL ECG REMOVAL,2013-09-21,816
CDISCPILOT01,VS,01-701-1148,106,SYSBP,Systolic Blood Pressure,STANDING,118,mmHg,NA,NA,6,AMBUL ECG REMOVAL,2013-09-21,817
CDISCPILOT01,VS,01-701-1148,107,SYSBP,Systolic Blood Pressure,SUPINE,115,mmHg,NA,NA,7,WEEK 6,2013-10-03,815
CDISCPILOT01,VS,01-701-1148,108,SYSBP,Systolic Blood Pressure,STANDING,106,mmHg,NA,NA,7,WEEK 6,2013-10-03,816
CDISCPILOT01,VS,01-701-1148,109,SYSBP,Systolic Blood Pressure,STANDING,108,mmHg,NA,NA,7,WEEK 6,2013-10-03,817
CDISCPILOT01,VS,01-701-1148,110,SYSBP,Systolic Blood Pressure,SUPINE,122,mmHg,NA,NA,8,WEEK 8,2013-10-18,815
CDISCPILOT01,VS,01-701-1148,111,SYSBP,Systolic Blood Pressure,STANDING,110,mmHg,NA,NA,8,WEEK 8,2013-10-18,816
CDISCPILOT01,VS,01-701-1148,112,SYSBP,Systolic Blood Pressure,STANDING,116,mmHg,NA,NA,8,WEEK 8,2013-10-18,817
CDISCPILOT01,VS,01-701-1148,113,SYSBP,Systolic Blood Pressure,SUPINE,NA,mmHg,NA,NA,9,WEEK 12,2013-11-17,815
CDISCPILOT01,VS,01-701-1148,114,SYSBP,Systolic Blood Pressure,STANDING,107,mmHg,NA,NA,9,WEEK 12,2013-11-17,816
CDISCPILOT01,VS,01-701-1148,115,SYSBP,Systolic Blood Pressure,STANDING,108,mmHg,NA,NA,9,WEEK 12,2013-11-17,817
CDISCPILOT01,VS,01-701-1148,116,SYSBP,Systolic Blood Pressure,SUPINE,114,mmHg,NA,NA,10,WEEK 16,2013-12-13,815
CDISCPILOT01,VS,01-701-1148,117,SYSBP,Systolic Blood Pressure,STANDING,107,mmHg,NA,NA,10,WEEK 16,2013-12-13,816
CDISCPILOT01,VS,01-701-1148,118,SYSBP,Systolic Blood Pressure,STANDING,109,mmHg,NA,NA,10,WEEK 16,2013-12-13,817
CDISCPILOT01,VS,01-701-1148,119,SYSBP,Systolic Blood Pressure,SUPINE,116,mmHg,NA,NA,11,WEEK 20,2014-01-10,815
CDISCPILOT01,VS,01-701-1148,120,SYSBP,Systolic Blood Pressure,STANDING,105,mmHg,NA,NA,11,WEEK 20,2014-01-10,816
CDISCPILOT01,VS,01-701-1148,121,SYSBP,Systolic Blood Pressure,STANDING,102,mmHg,NA,NA,11,WEEK 20,2014-01-10,817
CDISCPILOT01,VS,01-701-1148,122,SYSBP,Systolic Blood Pressure,SUPINE,101,mmHg,NA,NA,12,WEEK 24,2014-02-08,815
CDISCPILOT01,VS,01-701-1148,123,SYSBP,Systolic Blood Pressure,STANDING,96,mmHg,NA,NA,12,WEEK 24,2014-02-08,816
CDISCPILOT01,VS,01-701-1148,124,SYSBP,Systolic Blood Pressure,STANDING,100,mmHg,NA,NA,12,WEEK 24,2014-02-08,817
CDISCPILOT01,VS,01-701-1148,125,SYSBP,Systolic Blood Pressure,SUPINE,107,mmHg,NA,NA,13,WEEK 26,2014-02-20,815
CDISCPILOT01,VS,01-701-1148,126,SYSBP,Systolic Blood Pressure,STANDING,99,mmHg,NA,NA,13,WEEK 26,2014-02-20,816
CDISCPILOT01,VS,01-701-1148,127,SYSBP,Systolic Blood Pressure,STANDING,95,mmHg,NA,NA,13,WEEK 26,2014-02-20,817
CDISCPILOT01,VS,01-701-1148,128,TEMP,Temperature,NA,97.5,F,NA,NA,1,SCREENING 1,2013-08-14,NA
CDISCPILOT01,VS,01-701-1148,129,TEMP,Temperature,NA,97.9,F,NA,NA,2,SCREENING 2,2013-08-21,NA
CDISCPILOT01,VS,01-701-1148,130,TEMP,Temperature,NA,97.8,F,NA,Y,3,BASELINE,2013-08-23,NA
CDISCPILOT01,VS,01-701-1148,131,TEMP,Temperature,NA,97.7,F,NA,NA,3.5,AMBUL ECG PLACEMENT,2013-09-04,NA
CDISCPILOT01,VS,01-701-1148,132,TEMP,Temperature,NA,98.5,F,NA,NA,4,WEEK 2,2013-09-05,NA
CDISCPILOT01,VS,01-701-1148,133,TEMP,Temperature,NA,98.7,F,NA,NA,5,WEEK 4,2013-09-19,NA
CDISCPILOT01,VS,01-701-1148,134,TEMP,Temperature,NA,97.8,F,NA,NA,6,AMBUL ECG REMOVAL,2013-09-21,NA
CDISCPILOT01,VS,01-701-1148,135,TEMP,Temperature,NA,97.9,F,NA,NA,7,WEEK 6,2013-10-03,NA
CDISCPILOT01,VS,01-701-1148,136,TEMP,Temperature,NA,97.8,F,NA,NA,8,WEEK 8,2013-10-18,NA
CDISCPILOT01,VS,01-701-1148,137,TEMP,Temperature,NA,97.8,F,NA,NA,9,WEEK 12,2013-11-17,NA
CDISCPILOT01,VS,01-701-1148,138,TEMP,Temperature,NA,NA,F,NA,NA,10,WEEK 16,2013-12-13,NA
CDISCPILOT01,VS,01-701-1148,139,TEMP,Temperature,NA,97.6,F,NA,NA,11,WEEK 20,2014-01-10,NA
CDISCPILOT01,VS,01-701-1148,140,TEMP,Temperature,NA,97.6,F,NA,NA,12,WEEK 24,2014-02-08,NA
CDISCPILOT01,VS,01-701-1148,141,TEMP,Temperature,NA,97.5,F,NA,NA,13,WEEK 26,2014-02-20,NA
CDISCPILOT01,VS,01-701-1148,142,WEIGHT,Weight,NA,190.0,LB,NA,NA,1,SCREENING 1,2013-08-14,NA
CDISCPILOT01,VS,01-701-1148,143,WEIGHT,Weight,NA,NA,LB,NA,Y,3,BASELINE,2013-08-23,NA
CDISCPILOT01,VS,01-701-1148,144,WEIGHT,Weight,NA,193.0,LB,NA,NA,4,WEEK 2,2013-09-05,NA
CDISCPILOT01,VS,01-701-1148,145,WEIGHT,Weight,NA,196.0,LB,NA,NA,5,WEEK 4,2013-09-19,NA
CDISCPILOT01,VS,01-701-1148,146,WEIGHT,Weight,NA,193.0,LB,NA,NA,7,WEEK 6,2013-10-03,NA
CDISCPILOT01,VS,01-701-1148,147,WEIGHT,Weight,NA,195.0,LB,NA,NA,8,WEEK 8,2013-10-18,NA
CDISCPILOT01,VS,01-701-1148,148,WEIGHT,Weight,NA,195.0,LB,NA,NA,9,WEEK 12,2013-11-17,NA
CDISCPILOT01,VS,01-701-1148,149,WEIGHT,Weight,NA,194.0,LB,NA,NA,10,WEEK 16,2013-12-13,NA
CDISCPILOT01,VS,01-701-1148,150,WEIGHT,Weight,NA,199.0,LB,NA,NA,11,WEEK 20,2014-01-10,NA
CDISCPILOT01,VS,01-701-1148,151,WEIGHT,Weight,NA,NA,LB,NA,NA,12,WEEK 24,2014-02-08,NA
CDISCPILOT01,VS,01-701-1148,152,WEIGHT,Weight,NA,200.0,LB,NA,NA,13,WEEK 26,2014-02-20,NA
CDISCPILOT01,VS,01-701-1153,1,DIABP,Diastolic Blood Pressure,SUPINE,67,mmHg,NA,NA,1,SCREENING 1,2013-09-06,815
CDISCPILOT01,VS,01-701-1153,2,DIABP,Diastolic Blood Pressure,STANDING,68,mmHg,NA,NA,1,SCREENING 1,2013-09-06,816
CDISCPILOT01,VS,01-701-1153,3,DIABP,Diastolic Blood Pressure,STANDING,72,mmHg,NA,NA,1,SCREENING 1,2013-09-06,817
CDISCPILOT01,VS,01-701-1153,4,DIABP,Diastolic Blood Pressure,SUPINE,68,mmHg,NA,NA,2,SCREENING 2,2013-09-18,815
CDISCPILOT01,VS,01-701-1153,5,DIABP,Diastolic Blood Pressure,STANDING,74,mmHg,NA,NA,2,SCREENING 2,2013-09-18,816
CDISCPILOT01,VS,01-701-1153,6,DIABP,Diastolic Blood Pressure,STANDING,72,mmHg,NA,NA,2,SCREENING 2,2013-09-18,817
CDISCPILOT01,VS,01-701-1153,7,DIABP,Diastolic Blood Pressure,SUPINE,60,mmHg,NA,Y,3,BASELINE,2013-09-23,815
CDISCPILOT01,VS,01-701-1153,8,DIABP,Diastolic Blood Pressure,STANDING,62,mmHg,NA,Y,3,BASELINE,2013-09-23,816
CDISCPILOT01,VS,01-701-1153,9,DIABP,Diastolic Blood Pressure,STANDING,NA,mmHg,NA,Y,3,BASELINE,2013-09-23,817
CDISCPILOT01,VS,01-701-1153,10,DIABP,Diastolic Blood Pressure,SUPINE,72,mmHg,NA,NA,3.5,AMBUL ECG PLACEMENT,2013-10-07,815
CDISCPILOT01,VS,01-701-1153,11,DIABP,Diastolic Blood Pressure,STANDING,68,mmHg,NA,NA,3.5,AMBUL ECG PLACEMENT,2013-10-07,816
CDISCPILOT01,VS,01-701-1153,12,DIABP,Diastolic Blood Pressure,STANDING,NA,mmHg,NA,NA,3.5,AMBUL ECG PLACEMENT,2013-10-07,817
CDISCPILOT01,VS,01-701-1153,13,DIABP,Diastolic Blood Pressure,SUPINE,63,mmHg,NA,NA,4,WEEK 2,2013-10-08,815
CDISCPILOT01,VS,01-701-1153,14,DIABP,Diastolic Blood Pressure,STANDING,52,mmHg,NA,NA,4,WEEK 2,2013-10-08,816
CDISCPILOT01,VS,01-701-1153,15,DIABP,Diastolic Blood Pressure,STANDING,67,mmHg,NA,NA,4,WEEK 2,2013-10-08,817
CDISCPILOT01,VS,01-701-1153,16,DIABP,Diastolic Blood Pressure,SUPINE,56,mmHg,NA,NA,5,WEEK 4,2013-10-19,815
CDISCPILOT01,VS,01-701-1153,17,DIABP,Diastolic Blood Pressure,STANDING,NA,mmHg,NA,NA,5,WEEK 4,2013-10-19,816
CDISCPILOT01,VS,01-701-1153,18,DIABP,Diastolic Blood Pressure,STANDING,61,mmHg,NA,NA,5,WEEK 4,2013-10-19,817
CDISCPILOT01,VS,01-701-1153,19,DIABP,Diastolic Blood Pressure,SUPINE,NA,mmHg,NA,NA,6,AMBUL ECG REMOVAL,2013-10-28,815
CDISCPILOT01,VS,01-701-1153,20,DIABP,Diastolic Blood Pressure,STANDING,52,mmHg,NA,NA,6,AMBUL ECG REMOVAL,2013-10-28,816
CDISCPILOT01,VS,01-701-1153,21,DIABP,Diastolic Blood Pressure,STANDING,54,mmHg,NA,NA,6,AMBUL ECG REMOVAL,2013-10-28,817
CDISCPILOT01,VS,01-701-1153,22,DIABP,Diastolic Blood Pressure,SUPINE,59,mmHg,NA,NA,7,WEEK 6,2013-11-04,815
CDISCPILOT01,VS,01-701-1153,23,DIABP,Diastolic Blood Pressure,STANDING,68,mmHg,NA,NA,7,WEEK 6,2013-11-04,816
CDISCPILOT01,VS,01-701-1153,24,DIABP,Diastolic Blood Pressure,STANDING,72,mmHg,NA,NA,7,WEEK 6,2013-11-04,817
CDISCPILOT01,VS,01-701-1153,25,DIABP,Diastolic Blood Pressure,SUPINE,56,mmHg,NA,NA,8,WEEK 8,2013-11-18,815
CDISCPILOT01,VS,01-701-1153,26,DIABP,Diastolic Blood Pressure,STANDING,66,mmHg,NA,NA,8,WEEK 8,2013-11-18,816
CDISCPILOT01,VS,01-701-1153,27,DIABP,Diastolic Blood Pressure,STANDING,60,mmHg,NA,NA,8,WEEK 8,2013-11-18,817
CDISCPILOT01,VS,01-701-1153,28,DIABP,Diastolic Blood Pressure,SUPINE,63,mmHg,NA,NA,9,WEEK 12,2013-12-16,815
CDISCPILOT01,VS,01-701-1153,29,DIABP,Diastolic Blood Pressure,STANDING,66,mmHg,NA,NA,9,WEEK 12,2013-12-16,816
CDISCPILOT01,VS,01-701-1153,30,DIABP,Diastolic Blood Pressure,STANDING,60,mmHg,NA,NA,9,WEEK 12,2013-12-16,817
CDISCPILOT01,VS,01-701-1153,31,DIABP,Diastolic Blood Pressure,SUPINE,62,mmHg,NA,NA,10,WEEK 16,2014-01-08,815
CDISCPILOT01,VS,01-701-1153,32,DIABP,Diastolic Blood Pressure,STANDING,56,mmHg,NA,NA,10,WEEK 16,2014-01-08,816
CDISCPILOT01,VS,01-701-1153,33,DIABP,Diastolic Blood Pressure,STANDING,56,mmHg,NA,NA,10,WEEK 16,2014-01-08,817
CDISCPILOT01,VS,01-701-1153,34,DIABP,Diastolic Blood Pressure,SUPINE,54,mmHg,NA,NA,11,WEEK 20,2014-02-11,815
CDISCPILOT01,VS,01-701-1153,35,DIABP,Diastolic Blood Pressure,STANDING,57,mmHg,NA,NA,11,WEEK 20,2014-02-11,816
CDISCPILOT01,VS,01-701-1153,36,DIABP,Diastolic Blood Pressure,STANDING,61,mmHg,NA,NA,11,WEEK 20,2014-02-11,817
CDISCPILOT01,VS,01-701-1153,37,DIABP,Diastolic Blood Pressure,SUPINE,55,mmHg,NA,NA,12,WEEK 24,2014-03-11,815
CDISCPILOT01,VS,01-701-1153,38,DIABP,Diastolic Blood Pressure,STANDING,52,mmHg,NA,NA,12,WEEK 24,2014-03-11,816
CDISCPILOT01,VS,01-701-1153,39,DIABP,Diastolic Blood Pressure,STANDING,58,mmHg,NA,NA,12,WEEK 24,2014-03-11,817
CDISCPILOT01,VS,01-701-1153,40,DIABP,Diastolic Blood Pressure,SUPINE,58,mmHg,NA,NA,13,WEEK 26,2014-04-01,815
CDISCPILOT01,VS,01-701-1153,41,DIABP,Diastolic Blood Pressure,STANDING,NA,mmHg,NA,NA,13,WEEK 26,2014-04-01,816
CDISCPILOT01,VS,01-701-1153,42,DIABP,Diastolic Blood Pressure,STANDING,63,mmHg,NA,NA,13,WEEK 26,2014-04-01,817
CDISCPILOT01,VS,01-701-1153,43,HEIGHT,Height,NA,NA,IN,NA,NA,1,SCREENING 1,2013-09-06,NA
CDISCPILOT01,VS,01-701-1153,44,PULSE,Pulse Rate,SUPINE,80,BEATS/MIN,NA,NA,1,SCREENING 1,2013-09-06,815
CDISCPILOT01,VS,01-701-1153,45,PULSE,Pulse Rate,STANDING,88,BEATS/MIN,NA,NA,1,SCREENING 1,2013-09-06,816
CDISCPILOT01,VS,01-701-1153,46,PULSE,Pulse Rate,STANDING,86,BEATS/MIN,NA,NA,1,SCREENING 1,2013-09-06,817
CDISCPILOT01,VS,01-701-1153,47,PULSE,Pulse Rate,SUPINE,NA,BEATS/MIN,NA,NA,2,SCREENING 2,2013-09-18,815
CDISCPILOT01,VS,01-701-1153,48,PULSE,Pulse Rate,STANDING,88,BEATS/MIN,NA,NA,2,SCREENING 2,2013-09-18,816
CDISCPILOT01,VS,01-701-1153,49,PULSE,Pulse Rate,STANDING,NA,BEATS/MIN,NA,NA,2,SCREENING 2,2013-09-18,817
CDISCPILOT01,VS,01-701-1153,50,PULSE,Pulse Rate,SUPINE,84,BEATS/MIN,NA,Y,3,BASELINE,2013-09-23,815
CDISCPILOT01,VS,01-701-1153,51,PULSE,Pulse Rate,STANDING,89,BEATS/MIN,NA,Y,3,BASELINE,2013-09-23,816
CDISCPILOT01,VS,01-701-1153,52,PULSE,Pulse Rate,STANDING,NA,BEATS/MIN,NA,Y,3,BASELINE,2013-09-23,817
CDISCPILOT01,VS,01-701-1153,53,PULSE,Pulse Rate,SUPINE,NA,BEATS/MIN,NA,NA,3.5,AMBUL ECG PLACEMENT,2013-10-07,815
CDISCPILOT01,VS,01-701-1153,54,PULSE,Pulse Rate,STANDING,88,BEATS/MIN,NA,NA,3.5,AMBUL ECG PLACEMENT,2013-10-07,816
CDISCPILOT01,VS,01-701-1153,55,PULSE,Pulse Rate,STANDING,86,BEATS/MIN,NA,NA,3.5,AMBUL ECG PLACEMENT,2013-10-07,817
CDISCPILOT01,VS,01-701-1153,56,PULSE,Pulse Rate,SUPINE,72,BEATS/MIN,NA,NA,4,WEEK 2,2013-10-08,815
CDISCPILOT01,VS,01-701-1153,57,PULSE,Pulse Rate,STANDING,74,BEATS/MIN,NA,NA,4,WEEK 2,2013-10-08,816
CDISCPILOT01,VS,01-701-1153,58,PULSE,Pulse Rate,STANDING,NA,BEATS/MIN,NA,NA,4,WEEK 2,2013-10-08,817
CDISCPILOT01,VS,01-701-1153,59,PULSE,Pulse Rate,SUPINE,76,BEATS/MIN,NA,NA,5,WEEK 4,2013-10-19,815
CDISCPILOT01,VS,01-701-1153,60,PULSE,Pulse Rate,STANDING,75,BEATS/MIN,NA,NA,5,WEEK 4,2013-10-19,816
CDISCPILOT01,VS,01-701-1153,61,PULSE,Pulse Rate,STANDING,78,BEATS/MIN,NA,NA,5,WEEK 4,2013-10-19,817
CDISCPILOT01,VS,01-701-1153,62,PULSE,Pulse Rate,SUPINE,70,BEATS/MIN,NA,NA,6,AMBUL ECG REMOVAL,2013-10-28,815
CDISCPILOT01,VS,01-701-1153,63,PULSE,Pulse Rate,STANDING,76,BEATS/MIN,NA,NA,6,AMBUL ECG REMOVAL,2013-10-28,816
CDISCPILOT01,VS,01-701-1153,64,PULSE,Pulse Rate,STANDING,74,BEATS/MIN,NA,NA,6,AMBUL ECG REMOVAL,2013-10-28,817
CDISCPILOT01,VS,01-701-1153,65,PULSE,Pulse Rate,SUPINE,66,BEATS/MIN,NA,NA,7,WEEK 6,2013-11-04,815
CDISCPILOT01,VS,01-701-1153,66,PULSE,Pulse Rate,STANDING,78,BEATS/MIN,NA,NA,7,WEEK 6,2013-11-04,816
CDISCPILOT01,VS,01-701-1153,67,PULSE,Pulse Rate,STANDING,72,BEATS/MIN,NA,NA,7,WEEK 6,2013-11-04,817
CDISCPILOT01,VS,01-701-1153,68,PULSE,Pulse Rate,SUPINE,74,BEATS/MIN,NA,NA,8,WEEK 8,2013-11-18,815
CDISCPILOT01,VS,01-701-1153,69,PULSE,Pulse Rate,STANDING,80,BEATS/MIN,NA,NA,8,WEEK 8,2013-11-18,816
CDISCPILOT01,VS,01-701-1153,70,PULSE,Pulse Rate,STANDING,78,BEATS/MIN,NA,NA,8,WEEK 8,2013-11-18,817
CDISCPILOT01,VS,01-701-1153,71,PULSE,Pulse Rate,SUPINE,80,BEATS/MIN,NA,NA,9,WEEK 12,2013-12-16,815
CDISCPILOT01,VS,01-701-1153,72,PULSE,Pulse Rate,STANDING,84,BEATS/MIN,NA,NA,9,WEEK 12,2013-12-16,816
CDISCPILOT01,VS,01-701-1153,73,PULSE,Pulse Rate,STANDING,86,BEATS/MIN,NA,NA,9,WEEK 12,2013-12-16,817
CDISCPILOT01,VS,01-701-1153,74,PULSE,Pulse Rate,SUPINE,74,BEATS/MIN,NA,NA,10,WEEK 16,2014-01-08,815
CDISCPILOT01,VS,01-701-1153,75,PULSE,Pulse Rate,STANDING,74,BEATS/MIN,NA,NA,10,WEEK 16,2014-01-08,816
CDISCPILOT01,VS,01-701-1153,76,PULSE,Pulse Rate,STANDING,NA,BEATS/MIN,NA,NA,10,WEEK 16,2014-01-08,817
CDISCPILOT01,VS,01-701-1153,77,PULSE,Pulse Rate,SUPINE,NA,BEATS/MIN,NA,NA,11,WEEK 20,2014-02-11,815
CDISCPILOT01,VS,01-701-1153,78,PULSE,Pulse Rate,STANDING,NA,BEATS/MIN,NA,NA,11,WEEK 20,2014-02-11,816
CDISCPILOT01,VS,01-701-1153,79,PULSE,Pulse Rate,STANDING,71,BEATS/MIN,NA,NA,11,WEEK 20,2014-02-11,817
CDISCPILOT01,VS,01-701-1153,80,PULSE,Pulse Rate,SUPINE,74,BEATS/MIN,NA,NA,12,WEEK 24,2014-03-11,815
CDISCPILOT01,VS,01-701-1153,81,PULSE,Pulse Rate,STANDING,77,BEATS/MIN,NA,NA,12,WEEK 24,2014-03-11,816
CDISCPILOT01,VS,01-701-1153,82,PULSE,Pulse Rate,STANDING,NA,BEATS/MIN,NA,NA,12,WEEK 24,2014-03-11,817
CDISCPILOT01,VS,01-701-1153,83,PULSE,Pulse Rate,SUPINE,76,BEATS/MIN,NA,NA,13,WEEK 26,2014-04-01,815
CDISCPILOT01,VS,01-701-1153,84,PULSE,Pulse Rate,STANDING,76,BEATS/MIN,NA,NA,13,WEEK 26,2014-04-01,816
CDISCPILOT01,VS,01-701-1153,85,PULSE,Pulse Rate,STANDING,80,BEATS/MIN,NA,NA,13,WEEK 26,2014-04-01,817
CDISCPILOT01,VS,01-701-1153,86,SYSBP,Systolic Blood Pressure,SUPINE,144,mmHg,NA,NA,1,SCREENING 1,2013-09-06,815
CDISCPILOT01,VS,01-701-1153,87,SYSBP,Systolic Blood Pressure,STANDING,129,mmHg,NA,NA,1,SCREENING 1,2013-09-06,816
CDISCPILOT01,VS,01-701-1153,88,SYSBP,Systolic Blood Pressure,STANDING,130,mmHg,NA,NA,1,SCREENING 1,2013-09-06,817
CDISCPILOT01,VS,01-701-1153,89,SYSBP,Systolic Blood Pressure,SUPINE,150,mmHg,NA,NA,2,SCREENING 2,2013-09-18,815
CDISCPILOT01,VS,01-701-1153,90,SYSBP,Systolic Blood Pressure,STANDING,136,mmHg,NA,NA,2,SCREENING 2,2013-09-18,816
CDISCPILOT01,VS,01-701-1153,91,SYSBP,Systolic Blood Pressure,STANDING,142,mmHg,NA,NA,2,SCREENING 2,2013-09-18,817
CDISCPILOT01,VS,01-701-1153,92,SYSBP,Systolic Blood Pressure,SUPINE,142,mmHg,NA,Y,3,BASELINE,2013-09-23,815
CDISCPILOT01,VS,01-701-1153,93,SYSBP,Systolic Blood Pressure,STANDING,137,mmHg,NA,Y,3,BASELINE,2013-09-23,816
CDISCPILOT01,VS,01-701-1153,94,SYSBP,Systolic Blood Pressure,STANDING,138,mmHg,NA,Y,3,BASELINE,2013-09-23,817
CDISCPILOT01,VS,01-701-1153,95,SYSBP,Systolic Blood Pressure,SUPINE,146,mmHg,NA,NA,3.5,AMBUL ECG PLACEMENT,2013-10-07,815
CDISCPILOT01,VS,01-701-1153,96,SYSBP,Systolic Blood Pressure,STANDING,NA,mmHg,NA,NA,3.5,AMBUL ECG PLACEMENT,2013-10-07,816
CDISCPILOT01,VS,01-701-1153,97,SYSBP,Systolic Blood Pressure,STANDING,146,mmHg,NA,NA,3.5,AMBUL ECG PLACEMENT,2013-10-07,817
CDISCPILOT01,VS,01-701-1153,98,SYSBP,Systolic Blood Pressure,SUPINE,142,mmHg,NA,NA,4,WEEK 2,2013-10-08,815
CDISCPILOT01,VS,01-701-1153,99,SYSBP,Systolic Blood Pressure,STANDING,NA,mmHg,NA,NA,4,WEEK 2,2013-10-08,816
CDISCPILOT01,VS,01-701-1153,100,SYSBP,Systolic Blood Pressure,STANDING,141,mmHg,NA,NA,4,WEEK 2,2013-10-08,817
CDISCPILOT01,VS,01-701-1153,101,SYSBP,Systolic Blood Pressure,SUPINE,138,mmHg,NA,NA,5,WEEK 4,2013-10-19,815
CDISCPILOT01,VS,01-701-1153,102,SYSBP,Systolic Blood Pressure,STANDING,NA,mmHg,NA,NA,5,WEEK 4,2013-10-19,816
CDISCPILOT01,VS,01-701-1153,103,SYSBP,Systolic Blood Pressure,STANDING,138,mmHg,NA,NA,5,WEEK 4,2013-10-19,817
CDISCPILOT01,VS,01-701-1153,104,SYSBP,Systolic Blood Pressure,SUPINE,145,mmHg,NA,NA,6,AMBUL ECG REMOVAL,2013-10-28,815
CDISCPILOT01,VS,01-701-1153,105,SYSBP,Systolic Blood Pressure,STANDING,122,mmHg,NA,NA,6,AMBUL ECG REMOVAL,2013-10-28,816
CDISCPILOT01,VS,01-701-1153,106,SYSBP,Systolic Blood Pressure,STANDING,NA,mmHg,NA,NA,6,AMBUL ECG REMOVAL,2013-10-28,817
CDISCPILOT01,VS,01-701-1153,107,SYSBP,Systolic Blood Pressure,SUPINE,145,mmHg,NA,NA,7,WEEK 6,2013-11-04,815
CDISCPILOT01,VS,01-701-1153,108,SYSBP,Systolic Blood Pressure,STANDING,151,mmHg,NA,NA,7,WEEK 6,2013-11-04,816
CDISCPILOT01,VS,01-701-1153,109,SYSBP,Systolic Blood Pressure,STANDING,154,mmHg,NA,NA,7,WEEK 6,2013-11-04,817
CDISCPILOT01,VS,01-701-1153,110,SYSBP,Systolic Blood Pressure,SUPINE,144,mmHg,NA,NA,8,WEEK 8,2013-11-18,815
CDISCPILOT01,VS,01-701-1153,111,SYSBP,Systolic Blood Pressure,STANDING,NA,mmHg,NA,NA,8,WEEK 8,2013-11-18,816
CDISCPILOT01,VS,01-701-1153,112,SYSBP,Systolic Blood Pressure,STANDING,138,mmHg,NA,NA,8,WEEK 8,2013-11-18,817
CDISCPILOT01,VS,01-701-1153,113,SYSBP,Systolic Blood Pressure,SUPINE,161,mmHg,NA,NA,9,WEEK 12,2013-12-16,815
CDISCPILOT01,VS,01-701-1153,114,SYSBP,Systolic Blood Pressure,STANDING,NA,mmHg,NA,NA,9,WEEK 12,2013-12-16,816
CDISCPILOT01,VS,01-701-1153,115,SYSBP,Systolic Blood Pressure,STANDING,145,mmHg,NA,NA,9,WEEK 12,2013-12-16,817
CDISCPILOT01,VS,01-701-1153,116,SYSBP,Systolic Blood Pressure,SUPINE,150,mmHg,NA,NA,10,WEEK 16,2014-01-08,815
CDISCPILOT01,VS,01-701-1153,117,SYSBP,Systolic Blood Pressure,STANDING,145,mmHg,NA,NA,10,WEEK 16,2014-01-08,816
CDISCPILOT01,VS,01-701-1153,118,SYSBP,Systolic Blood Pressure,STANDING,154,mmHg,NA,NA,10,WEEK 16,2014-01-08,817
CDISCPILOT01,VS,01-701-1153,119,SYSBP,Systolic Blood Pressure,SUPINE,144,mmHg,NA,NA,11,WEEK 20,2014-02-11,815
CDISCPILOT01,VS,01-701-1153,120,SYSBP,Systolic Blood Pressure,STANDING,138,mmHg,NA,NA,11,WEEK 20,2014-02-11,816
CDISCPILOT01,VS,01-701-1153,121,SYSBP,Systolic Blood Pressure,STANDING,138,mmHg,NA,NA,11,WEEK 20,2014-02-11,817
CDISCPILOT01,VS,01-701-1153,122,SYSBP,Systolic Blood Pressure,SUPINE,153,mmHg,NA,NA,12,WEEK 24,2014-03-11,815
CDISCPILOT01,VS,01-701-1153,123,SYSBP,Systolic Blood Pressure,STANDING,140,mmHg,NA,NA,12,WEEK 24,2014-03-11,816
CDISCPILOT01,VS,01-701-1153,124,SYSBP,Systolic Blood Pressure,STANDING,145,mmHg,NA,NA,12,WEEK 24,2014-03-11,817
CDISCPILOT01,VS,01-701-1153,125,SYSBP,Systolic Blood Pressure,SUPINE,160,mmHg,NA,NA,13,WEEK 26,2014-04-01,815
CDISCPILOT01,VS,01-701-1153,126,SYSBP,Systolic Blood Pressure,STANDING,152,mmHg,NA,NA,13,WEEK 26,2014-04-01,816
CDISCPILOT01,VS,01-701-1153,127,SYSBP,Systolic Blood Pressure,STANDING,161,mmHg,NA,NA,13,WEEK 26,2014-04-01,817
CDISCPILOT01,VS,01-701-1153,128,TEMP,Temperature,NA,098.3,F,NA,NA,1,SCREENING 1,2013-09-06,NA
CDISCPILOT01,VS,01-701-1153,129,TEMP,Temperature,NA,098.4,F,NA,NA,2,SCREENING 2,2013-09-18,NA
CDISCPILOT01,VS,01-701-1153,130,TEMP,Temperature,NA,098.5,F,NA,Y,3,BASELINE,2013-09-23,NA
CDISCPILOT01,VS,01-701-1153,131,TEMP,Temperature,NA,098.2,F,NA,NA,3.5,AMBUL ECG PLACEMENT,2013-10-07,NA
CDISCPILOT01,VS,01-701-1153,132,TEMP,Temperature,NA,NA,F,NA,NA,4,WEEK 2,2013-10-08,NA
CDISCPILOT01,VS,01-701-1153,133,TEMP,Temperature,NA,099.0,F,NA,NA,5,WEEK 4,2013-10-19,NA
CDISCPILOT01,VS,01-701-1153,134,TEMP,Temperature,NA,098.9,F,NA,NA,6,AMBUL ECG REMOVAL,2013-10-28,NA
CDISCPILOT01,VS,01-701-1153,135,TEMP,Temperature,NA,98.1,F,NA,NA,7,WEEK 6,2013-11-04,NA
CDISCPILOT01,VS,01-701-1153,136,TEMP,Temperature,NA,98.3,F,NA,NA,8,WEEK 8,2013-11-18,NA
CDISCPILOT01,VS,01-701-1153,137,TEMP,Temperature,NA,98.2,F,NA,NA,9,WEEK 12,2013-12-16,NA
CDISCPILOT01,VS,01-701-1153,138,TEMP,Temperature,NA,98.5,F,NA,NA,10,WEEK 16,2014-01-08,NA
CDISCPILOT01,VS,01-701-1153,139,TEMP,Temperature,NA,97.6,F,NA,NA,11,WEEK 20,2014-02-11,NA
CDISCPILOT01,VS,01-701-1153,140,TEMP,Temperature,NA,98.9,F,NA,NA,12,WEEK 24,2014-03-11,NA
CDISCPILOT01,VS,01-701-1153,141,TEMP,Temperature,NA,97.7,F,NA,NA,13,WEEK 26,2014-04-01,NA
CDISCPILOT01,VS,01-701-1153,142,WEIGHT,Weight,NA,NA,LB,NA,NA,1,SCREENING 1,2013-09-06,NA
CDISCPILOT01,VS,01-701-1153,143,WEIGHT,Weight,NA,128.0,LB,NA,Y,3,BASELINE,2013-09-23,NA
CDISCPILOT01,VS,01-701-1153,144,WEIGHT,Weight,NA,126.0,LB,NA,NA,4,WEEK 2,2013-10-08,NA
CDISCPILOT01,VS,01-701-1153,145,WEIGHT,Weight,NA,125.0,LB,NA,NA,5,WEEK 4,2013-10-19,NA
CDISCPILOT01,VS,01-701-1153,146,WEIGHT,Weight,NA,127.0,LB,NA,NA,7,WEEK 6,2013-11-04,NA
CDISCPILOT01,VS,01-701-1153,147,WEIGHT,Weight,NA,128.0,LB,NA,NA,8,WEEK 8,2013-11-18,NA
CDISCPILOT01,VS,01-701-1153,148,WEIGHT,Weight,NA,126.0,LB,NA,NA,9,WEEK 12,2013-12-16,NA
CDISCPILOT01,VS,01-701-1153,149,WEIGHT,Weight,NA,124.0,LB,NA,NA,10,WEEK 16,2014-01-08,NA
CDISCPILOT01,VS,01-701-1153,150,WEIGHT,Weight,NA,126.0,LB,NA,NA,11,WEEK 20,2014-02-11,NA
CDISCPILOT01,VS,01-701-1153,151,WEIGHT,Weight,NA,124.0,LB,NA,NA,12,WEEK 24,2014-03-11,NA
CDISCPILOT01,VS,01-701-1153,152,WEIGHT,Weight,NA,NA,LB,NA,NA,13,WEEK 26,2014-04-01,NA
CDISCPILOT01,VS,01-701-1180,1,DIABP,Diastolic Blood Pressure,SUPINE,86,mmHg,NA,NA,1,SCREENING 1,2013-01-28,815
CDISCPILOT01,VS,01-701-1180,2,DIABP,Diastolic Blood Pressure,STANDING,88,mmHg,NA,NA,1,SCREENING 1,2013-01-28,816
CDISCPILOT01,VS,01-701-1180,3,DIABP,Diastolic Blood Pressure,STANDING,90,mmHg,NA,NA,1,SCREENING 1,2013-01-28,817
CDISCPILOT01,VS,01-701-1180,4,DIABP,Diastolic Blood Pressure,SUPINE,84,mmHg,NA,NA,2,SCREENING 2,2013-02-10,815
CDISCPILOT01,VS,01-701-1180,5,DIABP,Diastolic Blood Pressure,STANDING,82,mmHg,NA,NA,2,SCREENING 2,2013-02-10,816
CDISCPILOT01,VS,01-701-1180,6,DIABP,Diastolic Blood Pressure,STANDING,84,mmHg,NA,NA,2,SCREENING 2,2013-02-10,817
CDISCPILOT01,VS,01-701-1180,7,DIABP,Diastolic Blood Pressure,SUPINE,76,mmHg,NA,Y,3,BASELINE,2013-02-12,815
CDISCPILOT01,VS,01-701-1180,8,DIABP,Diastolic Blood Pressure,STANDING,80,mmHg,NA,Y,3,BASELINE,2013-02-12,816
CDISCPILOT01,VS,01-701-1180,9,DIABP,Diastolic Blood Pressure,STANDING,84,mmHg,NA,Y,3,BASELINE,2013-02-12,817
CDISCPILOT01,VS,01-701-1180,10,DIABP,Diastolic Blood Pressure,SUPINE,91,mmHg,NA,NA,3.5,AMBUL ECG PLACEMENT,2013-02-24,815
CDISCPILOT01,VS,01-701-1180,11,DIABP,Diastolic Blood Pressure,STANDING,96,mmHg,NA,NA,3.5,AMBUL ECG PLACEMENT,2013-02-24,816
CDISCPILOT01,VS,01-701-1180,12,DIABP,Diastolic Blood Pressure,STANDING,99,mmHg,NA,NA,3.5,AMBUL ECG PLACEMENT,2013-02-24,817
CDISCPILOT01,VS,01-701-1180,13,DIABP,Diastolic Blood Pressure,SUPINE,NA,mmHg,NA,NA,4,WEEK 2,2013-02-25,815
CDISCPILOT01,VS,01-701-1180,14,DIABP,Diastolic Blood Pressure,STANDING,93,mmHg,NA,NA,4,WEEK 2,2013-02-25,816
CDISCPILOT01,VS,01-701-1180,15,DIABP,Diastolic Blood Pressure,STANDING,97,mmHg,NA,NA,4,WEEK 2,2013-02-25,817
CDISCPILOT01,VS,01-701-1180,16,DIABP,Diastolic Blood Pressure,SUPINE,79,mmHg,NA,NA,5,WEEK 4,2013-03-11,815
CDISCPILOT01,VS,01-701-1180,17,DIABP,Diastolic Blood Pressure,STANDING,83,mmHg,NA,NA,5,WEEK 4,2013-03-11,816
CDISCPILOT01,VS,01-701-1180,18,DIABP,Diastolic Blood Pressure,STANDING,83,mmHg,NA,NA,5,WEEK 4,2013-03-11,817
CDISCPILOT01,VS,01-701-1180,19,DIABP,Diastolic Blood Pressure,SUPINE,86,mmHg,NA,NA,6,AMBUL ECG REMOVAL,2013-03-13,815
CDISCPILOT01,VS,01-701-1180,20,DIABP,Diastolic Blood Pressure,STANDING,84,mmHg,NA,NA,6,AMBUL ECG REMOVAL,2013-03-13,816
CDISCPILOT01,VS,01-701-1180,21,DIABP,Diastolic Blood Pressure,STANDING,84,mmHg,NA,NA,6,AMBUL ECG REMOVAL,2013-03-13,817
CDISCPILOT01,VS,01-701-1180,22,DIABP,Diastolic Blood Pressure,SUPINE,84,mmHg,NA,NA,7,WEEK 6,2013-03-23,815
CDISCPILOT01,VS,01-701-1180,23,DIABP,Diastolic Blood Pressure,STANDING,85,mmHg,NA,NA,7,WEEK 6,2013-03-23,816
CDISCPILOT01,VS,01-701-1180,24,DIABP,Diastolic Blood Pressure,STANDING,NA,mmHg,NA,NA,7,WEEK 6,2013-03-23,817
CDISCPILOT01,VS,01-701-1180,25,HEIGHT,Height,NA,071.0,IN,NA,NA,1,SCREENING 1,2013-01-28,NA
CDISCPILOT01,VS,01-701-1180,26,PULSE,Pulse Rate,SUPINE,60,BEATS/MIN,NA,NA,1,SCREENING 1,2013-01-28,815
CDISCPILOT01,VS,01-701-1180,27,PULSE,Pulse Rate,STANDING,68,BEATS/MIN,NA,NA,1,SCREENING 1,2013-01-28,816
CDISCPILOT01,VS,01-701-1180,28,PULSE,Pulse Rate,STANDING,64,BEATS/MIN,NA,NA,1,SCREENING 1,2013-01-28,817
CDISCPILOT01,VS,01-701-1180,29,PULSE,Pulse Rate,SUPINE,60,BEATS/MIN,NA,NA,2,SCREENING 2,2013-02-10,815
CDISCPILOT01,VS,01-701-1180,30,PULSE,Pulse Rate,STANDING,64,BEATS/MIN,NA,NA,2,SCREENING 2,2013-02-10,816
CDISCPILOT01,VS,01-701-1180,31,PULSE,Pulse Rate,STANDING,66,BEATS/MIN,NA,NA,2,SCREENING 2,2013-02-10,817
CDISCPILOT01,VS,01-701-1180,32,PULSE,Pulse Rate,SUPINE,66,BEATS/MIN,NA,Y,3,BASELINE,2013-02-12,815
CDISCPILOT01,VS,01-701-1180,33,PULSE,Pulse Rate,STANDING,74,BEATS/MIN,NA,Y,3,BASELINE,2013-02-12,816
CDISCPILOT01,VS,01-701-1180,34,PULSE,Pulse Rate,STANDING,70,BEATS/MIN,NA,Y,3,BASELINE,2013-02-12,817
CDISCPILOT01,VS,01-701-1180,35,PULSE,Pulse Rate,SUPINE,71,BEATS/MIN,NA,NA,3.5,AMBUL ECG PLACEMENT,2013-02-24,815
CDISCPILOT01,VS,01-701-1180,36,PULSE,Pulse Rate,STANDING,77,BEATS/MIN,NA,NA,3.5,AMBUL ECG PLACEMENT,2013-02-24,816
CDISCPILOT01,VS,01-701-1180,37,PULSE,Pulse Rate,STANDING,78,BEATS/MIN,NA,NA,3.5,AMBUL ECG PLACEMENT,2013-02-24,817
CDISCPILOT01,VS,01-701-1180,38,PULSE,Pulse Rate,SUPINE,68,BEATS/MIN,NA,NA,4,WEEK 2,2013-02-25,815
CDISCPILOT01,VS,01-701-1180,39,PULSE,Pulse Rate,STANDING,NA,BEATS/MIN,NA,NA,4,WEEK 2,2013-02-25,816
CDISCPILOT01,VS,01-701-1180,40,PULSE,Pulse Rate,STANDING,74,BEATS/MIN,NA,NA,4,WEEK 2,2013-02-25,817
CDISCPILOT01,VS,01-701-1180,41,PULSE,Pulse Rate,SUPINE,67,BEATS/MIN,NA,NA,5,WEEK 4,2013-03-11,815
CDISCPILOT01,VS,01-701-1180,42,PULSE,Pulse Rate,STANDING,81,BEATS/MIN,NA,NA,5,WEEK 4,2013-03-11,816
CDISCPILOT01,VS,01-701-1180,43,PULSE,Pulse Rate,STANDING,71,BEATS/MIN,NA,NA,5,WEEK 4,2013-03-11,817
CDISCPILOT01,VS,01-701-1180,44,PULSE,Pulse Rate,SUPINE,61,BEATS/MIN,NA,NA,6,AMBUL ECG REMOVAL,2013-03-13,815
CDISCPILOT01,VS,01-701-1180,45,PULSE,Pulse Rate,STANDING,72,BEATS/MIN,NA,NA,6,AMBUL ECG REMOVAL,2013-03-13,816
CDISCPILOT01,VS,01-701-1180,46,PULSE,Pulse Rate,STANDING,70,BEATS/MIN,NA,NA,6,AMBUL ECG REMOVAL,2013-03-13,817
CDISCPILOT01,VS,01-701-1180,47,PULSE,Pulse Rate,SUPINE,58,BEATS/MIN,NA,NA,7,WEEK 6,2013-03-23,815
CDISCPILOT01,VS,01-701-1180,48,PULSE,Pulse Rate,STANDING,NA,BEATS/MIN,NA,NA,7,WEEK 6,2013-03-23,816
CDISCPILOT01,VS,01-701-1180,49,PULSE,Pulse Rate,STANDING,65,BEATS/MIN,NA,NA,7,WEEK 6,2013-03-23,817
CDISCPILOT01,VS,01-701-1180,50,SYSBP,Systolic Blood Pressure,SUPINE,146,mmHg,NA,NA,1,SCREENING 1,2013-01-28,815
